{
  "metadata": {
    "version": "original-full-response-bidirectional-1",
    "timestamp": "2026-04-10T09:51:53.354107",
    "agent": "Claude Code (claude -p)",
    "agent_models": [
      "glm-5"
    ],
    "judge": "deepseek-chat",
    "evaluation": "3-tier: pairwise + multi-dim + auto-metrics",
    "dry_run": false,
    "seed": 42,
    "budget": 8000,
    "total_cost": 16.036,
    "agent_cost": 15.3551,
    "judge_cost": 0.6809,
    "framework_components": {
      "graph_nodes": 45,
      "skill_files": 59,
      "principles": 50,
      "regulatory_patterns": 8
    },
    "tasks": [
      "task-01-sap-parse",
      "task-02-protocol-setup",
      "task-06-sdtm-dm",
      "task-07-sdtm-ae",
      "task-10-p21-sdtm",
      "task-13-adam-adsl",
      "task-14-adam-adae",
      "task-17-tfl-demographics",
      "task-20-tfl-ae",
      "task-21-define-sdtm"
    ],
    "conditions": [
      "agent_only",
      "agent_framework",
      "agent_framework_distill"
    ],
    "runs": 3,
    "source_version": "v4-claude-3tier",
    "experiment_version": "original-full-response-bidirectional-1",
    "rejudge_complete": true,
    "rejudge_started_at": "2026-07-24T15:13:11.771079+00:00",
    "rejudge_completed_at": "2026-07-24T15:16:02.190937+00:00",
    "source_checkpoint": "experiments/results/experiment_v4_claude/experiment_20260410_095153.json",
    "source_checkpoint_sha256": "30ac7a272aa9f321a1865486f766db992ffd1d0c846e5c4fe815e9403a66ea74",
    "response_judging_policy": "full_stored_response_no_character_truncation",
    "pairwise_presentation_policy": "both_ab_and_ba_orientations",
    "prefix_judgments_preserved": true,
    "rejudge_protocol": {
      "version": "original-full-response-bidirectional-1",
      "script_sha256": "ad4e8420d69f598d96ce84434b9f2771c7ab74cf45e1290f9704d657c8614c59",
      "source_checkpoint_sha256": "30ac7a272aa9f321a1865486f766db992ffd1d0c846e5c4fe815e9403a66ea74",
      "dependency_sha256": {
        "run_experiment_v4_claude": "f3fc2a7e0c5a6d5c5b3e2e4892042dbf2917d483f626dcc93101a9e7c59074fd",
        "run_experiment_v5_corrected": "ee717d96f0343eac759742491a70493bd353a7606ec44f7c6f9ee60cb5622efd",
        "rejudge_v5_full_outputs": "535e9cab6d469a7c03bac436de3f494064d5fc6114203ae2ddd15bfdfc2c3784"
      },
      "judge_model_requested": "deepseek-v4-flash",
      "thinking_mode": "disabled",
      "temperature": 0.0,
      "response_format": "json_object",
      "scalar_max_tokens": 400,
      "pairwise_max_tokens": 300,
      "max_rendered_prompt_bytes": 2000000,
      "scalar_prompt_template_sha256": "3ca4589e764f6673230255b122fbd453a06aea7805114e31e058b775eef4113d",
      "pairwise_prompt_template_sha256": "0ff1c953e7c07361bc592094c32a3ea02f25f87f0cec9a2612a314e96c9e3ddb",
      "pairwise_contrasts": [
        [
          "agent_framework",
          "agent_only"
        ],
        [
          "agent_framework_distill",
          "agent_only"
        ]
      ],
      "domain_criteria_by_node": {
        "adam-adae": "DOMAIN-SPECIFIC CRITERIA FOR THIS TASK:\nA score of 4+ REQUIRES meeting these mandatory criteria:\n  - All ADaM fundamental principles satisfied\n  - Traceability to SDTM source maintained\n  - One record per subject (for ADSL)\nA score of 5 also requires:\n  - P21 ADaM validation returns 0 warnings\n  - All SAP-required variables derived",
        "adam-adsl": "DOMAIN-SPECIFIC CRITERIA FOR THIS TASK:\nA score of 4+ REQUIRES meeting these mandatory criteria:\n  - All ADaM fundamental principles satisfied\n  - Traceability to SDTM source maintained\n  - One record per subject (for ADSL)\nA score of 5 also requires:\n  - P21 ADaM validation returns 0 warnings\n  - All SAP-required variables derived",
        "define-xml-sdtm": "DOMAIN-SPECIFIC CRITERIA FOR THIS TASK:\nA score of 4+ REQUIRES meeting these mandatory criteria:\n  - Schema-valid against Define-XML v2.1\n  - All datasets and variables documented\n  - Controlled terminology references valid\nA score of 5 also requires:\n  - Renders correctly in stylesheet\n  - All hyperlinks functional",
        "p21-sdtm-validation": "DOMAIN-SPECIFIC CRITERIA FOR THIS TASK:\nA score of 4+ REQUIRES meeting these mandatory criteria:\n  - Zero validation errors\n  - All warnings reviewed and documented\nA score of 5 also requires:\n  - Zero validation warnings\n  - Automated tracking in place",
        "protocol-setup": "DOMAIN-SPECIFIC CRITERIA FOR THIS TASK:\nA score of 4+ REQUIRES meeting these mandatory criteria:\n  - All required sections present\n  - Version control established\nA score of 5 also requires:\n  - Reviewed and signed off\n  - Change tracking in place",
        "sap-review": "DOMAIN-SPECIFIC CRITERIA FOR THIS TASK:\nA score of 4+ REQUIRES meeting these mandatory criteria:\n  - All required sections present\n  - Version control established\nA score of 5 also requires:\n  - Reviewed and signed off\n  - Change tracking in place",
        "sdtm-ae-mapping": "DOMAIN-SPECIFIC CRITERIA FOR THIS TASK:\nA score of 4+ REQUIRES meeting these mandatory criteria:\n  - All required domain variables present per SDTM IG\n  - USUBJID uniquely identifies each subject\n  - Controlled terminology matches CDISC CT\nA score of 5 also requires:\n  - P21 validation returns 0 warnings\n  - Dataset passes cross-domain consistency checks",
        "sdtm-dm-mapping": "DOMAIN-SPECIFIC CRITERIA FOR THIS TASK:\nA score of 4+ REQUIRES meeting these mandatory criteria:\n  - All required domain variables present per SDTM IG\n  - USUBJID uniquely identifies each subject\n  - Controlled terminology matches CDISC CT\nA score of 5 also requires:\n  - P21 validation returns 0 warnings\n  - Dataset passes cross-domain consistency checks",
        "tfl-table-generation": "DOMAIN-SPECIFIC CRITERIA FOR THIS TASK:\nA score of 4+ REQUIRES meeting these mandatory criteria:\n  - All SAP-mandated outputs produced\n  - Statistical results match independent QC\n  - Formatting matches shell specifications\nA score of 5 also requires:\n  - Consistent decimal precision across tables\n  - Publication-quality resolution for figures"
      },
      "task_prompt_sha256": {
        "task-01-sap-parse": "cd1d3249e2dfa42b13fd5ed5ddf8c81b8b98ba1b22fe69b188fb3a042721da03",
        "task-02-protocol-setup": "f388af1a70fadead3e40b5f2433790d47ce00be0d99d6e2b4f615e5700cff29a",
        "task-06-sdtm-dm": "34880332752b5a2a979b0ff8794cd7a49539e8f5e37dc9b53b18be4ab82e368d",
        "task-07-sdtm-ae": "48b1add05950a759c63124675064e97d8be330c03b1b4ba463cc0c77547d5a96",
        "task-10-p21-sdtm": "39e759c0ff9a01cc22d937657e7476336bafefae03cae4dfaa1448a98b9cf33d",
        "task-13-adam-adsl": "cb16570c0ea5495fa48746472a490a2629af74c8419f785379b7d1228482770b",
        "task-14-adam-adae": "4fca0a6b8e11ecc1acb3bcba5812c5620fe2c93e7d39d2e6ecf90d424afb375c",
        "task-17-tfl-demographics": "34f9e50998d9097e5a7b2fa2a8ec4ec0fd9fd211b7ef5cc1d4401d3cea1f45ca",
        "task-20-tfl-ae": "7682bedf4d887c2745d45d38728d1fee87cde62badcf7a4e9fb7077890079ad0",
        "task-21-define-sdtm": "b66eb070487e70770fe9cfea7793e064daae7280aff3e26a0636cf4770fd2bf3"
      },
      "primary_decision_rule": {
        "contrast": "agent_framework_minus_agent_only",
        "outcome": "quality_score",
        "inferential_unit": "task",
        "replicate_handling": "average_three_replicates_within_task_condition",
        "interval": "10000-resample paired task bootstrap 95% percentile CI",
        "test": "exact two-sided sign-flip over paired task differences",
        "retained_secondary_evidence": "mean_difference > 0 AND CI lower bound > 0 AND exact P < .05",
        "directional_but_uncertain": "mean_difference > 0 but either CI includes 0 or exact P >= .05",
        "not_retained": "mean_difference <= 0",
        "manuscript_policy": "The corrective v5 experiment remains primary regardless of outcome."
      },
      "pricing_usd_per_million": {
        "prompt_cache_hit": 0.0028,
        "prompt_cache_miss": 0.14,
        "completion": 0.28
      },
      "pricing_as_of": "2026-07-17",
      "pricing_source": "https://api-docs.deepseek.com/quick_start/pricing",
      "protocol_sha256": "869e41e424383a0ab6ea8c6f07ae493d743d85ff1514e69c4fd863124a66ef4b"
    },
    "rejudge_protocol_sha256": "869e41e424383a0ab6ea8c6f07ae493d743d85ff1514e69c4fd863124a66ef4b",
    "rejudge_cost": {
      "scalar": 0.030450879,
      "pairwise": 0.062156298,
      "total": 0.092607178
    },
    "cumulative_cost_usd": 16.128607178,
    "rejudge_models_returned": [
      "deepseek-v4-flash"
    ],
    "judge_system_fingerprints": [
      "fp_8b330d02d0_prod0820_fp8_kvcache_20260402"
    ]
  },
  "results": [
    {
      "experiment_id": "20260410_081505_task-21-define-sdtm_agent_framework",
      "timestamp": "2026-04-10T08:15:05.064724",
      "task_id": "task-21-define-sdtm",
      "graph_node": "define-xml-sdtm",
      "layer": 6,
      "condition": "agent_framework",
      "prompt_preview": "--=={ context: define-xml-sdtm }==--\n\n## Graph Position\nLayer: 6 (Define.xml & Submission)\nNode:  define-xml-sdtm\nBudget: 7513/8000 tokens (APS: 5 loaded | 0 truncated | 0 dropped | 7513/8000 tokens)\n\n## Skills (5 active, ~7513 tokens)\n--------------------------------------------------\n  [FULL ] [GLOB] data-quality                   ~1690 tokens (p=0.22)\n  [FULL ] [GLOB] define-xml-builder             ~1859 tokens (p=0.22)\n  [FULL ] [GLOB] define-xml-validator           ~1707 tokens (p=0.22)\n  [",
      "response": "# Define.xml Specification \u2014 SDTM Datasets: DM & AE\n\n## 1. Dataset-Level Metadata (ItemGroupDef)\n\n| OID | Name | Label | Class | Structure | Repeating |\n|-----|------|-------|-------|-----------|-----------|\n| `IG.DM` | DM | Demographics | SPECIAL PURPOSE | One record per subject | No |\n| `IG.AE` | AE | Adverse Events | EVENTS | One record per adverse event per subject | Yes |\n\n---\n\n## 2. Variable-Level Metadata (ItemDef + ItemRef)\n\n### DM \u2014 Demographics\n\n| Order | OID | Name | Label | DataType | Length | Mandatory | Role | Origin |\n|-------|-----|------|-------|----------|--------|-----------|------|--------|\n| 1 | `IT.DM.STUDYID` | STUDYID | Study Identifier | text | 12 | Yes | Identifier | Assigned |\n| 2 | `IT.DM.DOMAIN` | DOMAIN | Domain Abbreviation | text | 2 | Yes | Identifier | Assigned |\n| 3 | `IT.DM.USUBJID` | USUBJID | Unique Subject Identifier | text | 30 | Yes | Identifier | Derived |\n| 4 | `IT.DM.SUBJID` | SUBJID | Subject Identifier for the Study | text | 20 | Yes | Identifier | CRF |\n| 5 | `IT.DM.RFSTDTC` | RFSTDTC | Subject Reference Start Date/Time | datetime | 20 | No | Timing | Derived |\n| 6 | `IT.DM.RFENDTC` | RFENDTC | Subject Reference End Date/Time | datetime | 20 | No | Timing | Derived |\n| 7 | `IT.DM.SITEID` | SITEID | Study Site Identifier | text | 10 | Yes | Identifier | CRF |\n| 8 | `IT.DM.BRTHDTC` | BRTHDTC | Date/Time of Birth | datetime | 20 | No | Timing | CRF |\n| 9 | `IT.DM.AGE` | AGE | Age | integer | 8 | No | Topic | CRF |\n| 10 | `IT.DM.AGEU` | AGEU | Age Units | text | 5 | No | Qualifier | CRF |\n| 11 | `IT.DM.SEX` | SEX | Sex | text | 1 | Yes | Topic | CRF |\n| 12 | `IT.DM.RACE` | RACE | Race | text | 40 | No | Topic | CRF |\n| 13 | `IT.DM.ETHNIC` | ETHNIC | Ethnicity | text | 40 | No | Topic | CRF |\n| 14 | `IT.DM.ARMCD` | ARMCD | Planned Arm Code | text | 8 | Yes | Identifier | Assigned |\n| 15 | `IT.DM.ARM` | ARM | Description of Planned Arm | text | 40 | Yes | Identifier | Assigned |\n| 16 | `IT.DM.ACTARMCD` | ACTARMCD | Actual Arm Code | text | 8 | No | Identifier | Assigned |\n| 17 | `IT.DM.ACTARM` | ACTARM | Description of Actual Arm | text | 40 | No | Identifier | Assigned |\n| 18 | `IT.DM.COUNTRY` | COUNTRY | Country | text | 3 | Yes | Identifier | CRF |\n| 19 | `IT.DM.DMDTC` | DMDTC | Date/Time of Demographics Collected | datetime | 20 | No | Timing | CRF |\n| 20 | `IT.DM.DMDY` | DMDY | Study Day of Demographics Collection | integer | 8 | No | Timing | Derived |\n\n### AE \u2014 Adverse Events\n\n| Order | OID | Name | Label | DataType | Length | Mandatory | Role | Origin |\n|-------|-----|------|-------|----------|--------|-----------|------|--------|\n| 1 | `IT.AE.STUDYID` | STUDYID | Study Identifier | text | 12 | Yes | Identifier | Assigned |\n| 2 | `IT.AE.DOMAIN` | DOMAIN | Domain Abbreviation | text | 2 | Yes | Identifier | Assigned |\n| 3 | `IT.AE.USUBJID` | USUBJID | Unique Subject Identifier | text | 30 | Yes | Identifier | Derived |\n| 4 | `IT.AE.AESEQ` | AESEQ | Sequence Number | integer | 8 | Yes | Identifier | Derived |\n| 5 | `IT.AE.AESPID` | AESPID | Sponsor-Defined Identifier | text | 20 | No | Identifier | CRF |\n| 6 | `IT.AE.AETERM` | AETERM | Reported Term for the Adverse Event | text | 200 | Yes | Topic | CRF |\n| 7 | `IT.AE.AEMODIFY` | AEMODIFY | Modified Reported Term | text | 200 | No | Qualifier | Assigned |\n| 8 | `IT.AE.AEDECOD` | AEDECOD | Dictionary-Derived Term | text | 200 | No | Synonym Qualifier | Assigned |\n| 9 | `IT.AE.AEBODSYS` | AEBODSYS | Body System or Organ Class | text | 200 | No | Synonym Qualifier | Assigned |\n| 10 | `IT.AE.AESER` | AESER | Serious Event | text | 1 | No | Qualifier | CRF |\n| 11 | `IT.AE.AESEV` | AESEV | Severity/Intensity | text | 15 | No | Qualifier | CRF |\n| 12 | `IT.AE.AEREL` | AEREL | Causality | text | 40 | No | Qualifier | CRF |\n| 13 | `IT.AE.AEOUT` | AEOUT | Outcome of Adverse Event | text | 40 | No | Qualifier | CRF |\n| 14 | `IT.AE.AESTDTC` | AESTDTC | Start Date/Time of Adverse Event | datetime | 20 | No | Timing | CRF |\n| 15 | `IT.AE.AEENDTC` | AEENDTC | End Date/Time of Adverse Event | datetime | 20 | No | Timing | CRF |\n| 16 | `IT.AE.AESTDY` | AESTDY | Study Day of Start of Adverse Event | integer | 8 | No | Timing | Derived |\n| 17 | `IT.AE.AEENDY` | AEENDY | Study Day of End of Adverse Event | integer | 8 | No | Timing | Derived |\n| 18 | `IT.AE.AEACN` | AEACN | Action Taken with Study Treatment | text | 40 | No | Qualifier | CRF |\n\n---\n\n## 3. Controlled Terminology (CodeList)\n\n| OID | Name | DataType | CT Source | Values |\n|-----|------|----------|-----------|--------|\n| `CL.SEX` | SEX | text | CDISC CT (SY) | `M` = Male, `F` = Female, `U` = Unknown, `UNDIFFERENTIATED` = Undifferentiated |\n| `CL.RACE` | RACE | text | CDISC CT (SY) | `WHITE` = White, `BLACK OR AFRICAN AMERICAN`, `ASIAN`, `AMERICAN INDIAN OR ALASKA NATIVE`, `NATIVE HAWAIIAN OR OTHER PACIFIC ISLANDER`, `MULTIPLE`, `OTHER` |\n| `CL.ETHNIC` | ETHNIC | text | CDISC CT (SY) | `HISPANIC OR LATINO`, `NOT HISPANIC OR LATINO`, `NOT REPORTED`, `UNKNOWN` |\n| `CL.AGEU` | AGEU | text | CDISC CT (SY) | `YEARS`, `MONTHS`, `WEEKS`, `DAYS`, `HOURS` |\n| `CL.COUNTRY` | COUNTRY | text | ISO 3166-1 | `USA`, `GBR`, `JPN`, `DEU`, `CAN`, \u2026 |\n| `CL.ARMCD` | ARMCD | text | Sponsor-defined | Per study protocol arms (e.g., `PBO`, `TRT-LOW`, `TRT-HIGH`) |\n| `CL.YESNO` | YES/NO | text | CDISC CT (NY) | `Y` = Yes, `N` = No |\n| `CL.AESEV` | AESEV | text | CDISC CT (SY) | `MILD` = Mild, `MODERATE` = Moderate, `SEVERE` = Severe |\n| `CL.AEREL` | AEREL | text | Sponsor-defined | `RELATED`, `NOT RELATED`, `POSSIBLY RELATED` |\n| `CL.AEOUT` | AEOUT | text | CDISC CT (SY) | `RECOVERED/RESOLVED`, `RECOVERING/RESOLVING`, `NOT RECOVERED/NOT RESOLVED`, `RECOVERED/RESOLVED WITH SEQUELAE`, `FATAL` |\n| `CL.AEACN` | AEACN | text | CDISC CT (SY) | `DOSE NOT CHANGED`, `DRUG INTERRUPTED`, `DOSE REDUCED`, `DOSE INCREASED`, `DRUG WITHDRAWN`, `NOT APPLICABLE` |\n| `CL.MEDDRA_PT` | AEDECOD | text | MedDRA (version documented) | MedDRA Preferred Terms |\n| `CL.MEDDRA_SOC` | AEBODSYS | text | MedDRA (version documented) | MedDRA System Organ Classes |\n\n---\n\n## 4. Computational Methods (def:ComputationalMethod)\n\n| OID | Name | Description |\n|-----|------|-------------|\n| `CM.USUBJID` | USUBJID Derivation | `USUBJID = STUDYID \\|\\| '-' \\|\\| SITEID \\|\\| '-' \\|\\| SUBJID` |\n| `CM.AESEQ` | AESEQ Derivation | Sequential integer within USUBJID, ordered by AESTDTC then AETERM |\n| `CM.AESTDY` | AESTDY Derivation | `AESTDY = AESTDTC \u2212 RFSTDTC + 1` (reference start date from DM) |\n| `CM.AEENDY` | AEENDY Derivation | `AEENDY = AEENDTC \u2212 RFSTDTC + 1` (reference start date from DM) |\n\n---\n\n## 5. XML Skeleton (Key Structural Elements)\n\n```xml\n<?xml version=\"1.0\" encoding=\"UTF-8\"?>\n<ODM xmlns=\"http://www.cdisc.org/ns/odm/v1.3\"\n     xmlns:def=\"http://www.cdisc.org/ns/def/v2.1\"\n     FileType=\"Snapshot\"\n     FileOID=\"{study_id}-define-{timestamp}\"\n     CreationDateTime=\"{ISO_8601}\">\n  <Study OID=\"{study_id}\">\n    <GlobalVariables>\n      <StudyName>{study_id}</StudyName>\n      <StudyDescription>{description}</StudyDescription>\n      <ProtocolName>{protocol_name}</ProtocolName>\n    </GlobalVariables>\n    <MetaDataVersion OID=\"CDISC.Define.{study_id}\"\n                     Name=\"{study_id} Define.xml\"\n                     def:DefineVersion=\"2.1.0\"\n                     def:StandardName=\"CDISC SDTM\"\n                     def:StandardVersion=\"3.4\">\n\n      <!-- ========== CodeLists ========== -->\n      <CodeList OID=\"CL.SEX\" Name=\"SEX\" DataType=\"text\">\n        <CodeListItem CodedValue=\"M\" def:Rank=\"1\">\n          <Decode><TranslatedText>Male</TranslatedText></Decode>\n        </CodeListItem>\n        <CodeListItem CodedValue=\"F\" def:Rank=\"2\">\n          <Decode><TranslatedText>Female</TranslatedText></Decode>\n        </CodeListItem>\n        <CodeListItem CodedValue=\"U\" def:Rank=\"3\">\n          <Decode><TranslatedText>Unknown</TranslatedText></Decode>\n        </CodeListItem>\n      </CodeList>\n\n      <CodeList OID=\"CL.AESEV\" Name=\"AESEV\" DataType=\"text\">\n        <CodeListItem CodedValue=\"MILD\" def:Rank=\"1\">\n          <Decode><TranslatedText>Mild</TranslatedText></Decode>\n        </CodeListItem>\n        <CodeListItem CodedValue=\"MODERATE\" def:Rank=\"2\">\n          <Decode><TranslatedText>Moderate</TranslatedText></Decode>\n        </CodeListItem>\n        <CodeListItem CodedValue=\"SEVERE\" def:Rank=\"3\">\n          <Decode><TranslatedText>Severe</TranslatedText></Decode>\n        </CodeListItem>\n      </CodeList>\n\n      <CodeList OID=\"CL.YESNO\" Name=\"YES/NO\" DataType=\"text\">\n        <CodeListItem CodedValue=\"Y\" def:Rank=\"1\">\n          <Decode><TranslatedText>Yes</TranslatedText></Decode>\n        </CodeListItem>\n        <CodeListItem CodedValue=\"N\" def:Rank=\"2\">\n          <Decode><TranslatedText>No</TranslatedText></Decode>\n        </CodeListItem>\n      </CodeList>\n\n      <!-- ========== Computational Methods ========== -->\n      <def:ComputationalMethod OID=\"CM.USUBJID\" Name=\"USUBJID Derivation\">\n        <Description>\n          <TranslatedText>USUBJID = STUDYID || '-' || SITEID || '-' || SUBJID</TranslatedText>\n        </Description>\n      </def:ComputationalMethod>\n\n      <def:ComputationalMethod OID=\"CM.AESEQ\" Name=\"AESEQ Derivation\">\n        <Description>\n          <TranslatedText>Sequential integer within USUBJID, ordered by AESTDTC then AETERM</TranslatedText>\n        </Description>\n      </def:ComputationalMethod>\n\n      <!-- ========== DM ItemDefs ========== -->\n      <ItemDef OID=\"IT.DM.STUDYID\" Name=\"STUDYID\" DataType=\"text\" Length=\"12\"\n               def:Label=\"Study Identifier\" Origin=\"Assigned\" Role=\"Identifier\">\n        <Description><TranslatedText>Study Identifier</TranslatedText></Description>\n      </ItemDef>\n\n      <ItemDef OID=\"IT.DM.USUBJID\" Name=\"USUBJID\" DataType=\"text\" Length=\"30\"\n               def:Label=\"Unique Subject Identifier\" Origin=\"Derived\" Role=\"Identifier\">\n        <Description><TranslatedText>Unique Subject Identifier</TranslatedText></Description>\n        <MethodRef MethodOID=\"CM.USUBJID\"/>\n      </ItemDef>\n\n      <ItemDef OID=\"IT.DM.SEX\" Name=\"SEX\" DataType=\"text\" Length=\"1\"\n               def:Label=\"Sex\" Origin=\"CRF\" Role=\"Topic\">\n        <Description><TranslatedText>Sex of the subject</TranslatedText></Description>\n        <CodeListRef CodeListOID=\"CL.SEX\"/>\n      </ItemDef>\n\n      <ItemDef OID=\"IT.DM.RACE\" Name=\"RACE\" DataType=\"text\" Length=\"40\"\n               def:Label=\"Race\" Origin=\"CRF\" Role=\"Topic\">\n        <Description><TranslatedText>Race of the subject</TranslatedText></Description>\n        <CodeListRef CodeListOID=\"CL.RACE\"/>\n      </ItemDef>\n\n      <ItemDef OID=\"IT.DM.ETHNIC\" Name=\"ETHNIC\" DataType=\"text\" Length=\"40\"\n               def:Label=\"Ethnicity\" Origin=\"CRF\" Role=\"Topic\">\n        <Description><TranslatedText>Ethnicity of the subject</TranslatedText></Description>\n        <CodeListRef CodeListOID=\"CL.ETHNIC\"/>\n      </ItemDef>\n\n      <ItemDef OID=\"IT.DM.ARMCD\" Name=\"ARMCD\" DataType=\"text\" Length=\"8\"\n               def:Label=\"Planned Arm Code\" Origin=\"Assigned\" Role=\"Identifier\">\n        <Description><TranslatedText>Planned Arm Code</TranslatedText></Description>\n        <CodeListRef CodeListOID=\"CL.ARMCD\"/>\n      </ItemDef>\n\n      <!-- ========== AE ItemDefs ========== -->\n      <ItemDef OID=\"IT.AE.AETERM\" Name=\"AETERM\" DataType=\"text\" Length=\"200\"\n               def:Label=\"Reported Term for the Adverse Event\" Origin=\"CRF\" Role=\"Topic\">\n        <Description><TranslatedText>Reported term for the adverse event</TranslatedText></Description>\n      </ItemDef>\n\n      <ItemDef OID=\"IT.AE.AEDECOD\" Name=\"AEDECOD\" DataType=\"text\" Length=\"200\"\n               def:Label=\"Dictionary-Derived Term\" Origin=\"Assigned\" Role=\"Synonym Qualifier\">\n        <Description><TranslatedText>MedDRA dictionary-derived term</TranslatedText></Description>\n        <CodeListRef CodeListOID=\"CL.MEDDRA_PT\"/>\n      </ItemDef>\n\n      <ItemDef OID=\"IT.AE.AEBODSYS\" Name=\"AEBODSYS\" DataType=\"text\" Length=\"200\"\n               def:Label=\"Body System or Organ Class\" Origin=\"Assigned\" Role=\"Synonym Qualifier\">\n        <Description><TranslatedText>MedDRA Body System or Organ Class</TranslatedText></Description>\n        <CodeListRef CodeListOID=\"CL.MEDDRA_SOC\"/>\n      </ItemDef>\n\n      <ItemDef OID=\"IT.AE.AESER\" Name=\"AESER\" DataType=\"text\" Length=\"1\"\n               def:Label=\"Serious Event\" Origin=\"CRF\" Role=\"Qualifier\">\n        <Description><TranslatedText>Is the adverse event serious?</TranslatedText></Description>\n        <CodeListRef CodeListOID=\"CL.YESNO\"/>\n      </ItemDef>\n\n      <ItemDef OID=\"IT.AE.AESEV\" Name=\"AESEV\" DataType=\"text\" Length=\"15\"\n               def:Label=\"Severity/Intensity\" Origin=\"CRF\" Role=\"Qualifier\">\n        <Description><TranslatedText>Severity/intensity of the adverse event</TranslatedText></Description>\n        <CodeListRef CodeListOID=\"CL.AESEV\"/>\n      </ItemDef>\n\n      <ItemDef OID=\"IT.AE.AEREL\" Name=\"AEREL\" DataType=\"text\" Length=\"40\"\n               def:Label=\"Causality\" Origin=\"CRF\" Role=\"Qualifier\">\n        <Description><TranslatedText>Causality assessment</TranslatedText></Description>\n        <CodeListRef CodeListOID=\"CL.AEREL\"/>\n      </ItemDef>\n\n      <ItemDef OID=\"IT.AE.AEOUT\" Name=\"AEOUT\" DataType=\"text\" Length=\"40\"\n               def:Label=\"Outcome of Adverse Event\" Origin=\"CRF\" Role=\"Qualifier\">\n        <Description><TranslatedText>Outcome of the adverse event</TranslatedText></Description>\n        <CodeListRef CodeListOID=\"CL.AEOUT\"/>\n      </ItemDef>\n\n      <ItemDef OID=\"IT.AE.AESTDTC\" Name=\"AESTDTC\" DataType=\"datetime\" Length=\"20\"\n               def:Label=\"Start Date/Time of Adverse Event\" Origin=\"CRF\" Role=\"Timing\">\n        <Description><TranslatedText>Start date/time of the adverse event (ISO 8601)</TranslatedText></Description>\n      </ItemDef>\n\n      <ItemDef OID=\"IT.AE.AESEQ\" Name=\"AESEQ\" DataType=\"integer\" Length=\"8\"\n               def:Label=\"Sequence Number\" Origin=\"Derived\" Role=\"Identifier\">\n        <Description><TranslatedText>Sequence number for this AE within the subject</TranslatedText></Description>\n        <MethodRef MethodOID=\"CM.AESEQ\"/>\n      </ItemDef>\n\n      <!-- ========== ItemGroupDef: DM ========== -->\n      <ItemGroupDef OID=\"IG.DM\" Name=\"DM\" Domain=\"DM\"\n                    Repeating=\"No\" IsReferenceData=\"No\"\n                    def:Structure=\"One record per subject\"\n                    def:DatasetName=\"DM\"\n                    def:Class=\"SPECIAL PURPOSE\"\n                    def:HasNoData=\"No\">\n        <Description><TranslatedText>Demographics</TranslatedText></Description>\n        <ItemRef ItemOID=\"IT.DM.STUDYID\"  OrderNumber=\"1\"  Mandatory=\"Yes\"/>\n        <ItemRef ItemOID=\"IT.DM.DOMAIN\"   OrderNumber=\"2\"  Mandatory=\"Yes\"/>\n        <ItemRef ItemOID=\"IT.DM.USUBJID\"  OrderNumber=\"3\"  Mandatory=\"Yes\"/>\n        <ItemRef ItemOID=\"IT.DM.SUBJID\"   OrderNumber=\"4\"  Mandatory=\"Yes\"/>\n        <ItemRef ItemOID=\"IT.DM.RFSTDTC\"  OrderNumber=\"5\"  Mandatory=\"No\"/>\n        <ItemRef ItemOID=\"IT.DM.RFENDTC\"  OrderNumber=\"6\"  Mandatory=\"No\"/>\n        <ItemRef ItemOID=\"IT.DM.SITEID\"   OrderNumber=\"7\"  Mandatory=\"Yes\"/>\n        <ItemRef ItemOID=\"IT.DM.BRTHDTC\"  OrderNumber=\"8\"  Mandatory=\"No\"/>\n        <ItemRef ItemOID=\"IT.DM.AGE\"      OrderNumber=\"9\"  Mandatory=\"No\"/>\n        <ItemRef ItemOID=\"IT.DM.AGEU\"     OrderNumber=\"10\" Mandatory=\"No\"/>\n        <ItemRef ItemOID=\"IT.DM.SEX\"      OrderNumber=\"11\" Mandatory=\"Yes\"/>\n        <ItemRef ItemOID=\"IT.DM.RACE\"     OrderNumber=\"12\" Mandatory=\"No\"/>\n        <ItemRef ItemOID=\"IT.DM.ETHNIC\"   OrderNumber=\"13\" Mandatory=\"No\"/>\n        <ItemRef ItemOID=\"IT.DM.ARMCD\"    OrderNumber=\"14\" Mandatory=\"Yes\"/>\n        <ItemRef ItemOID=\"IT.DM.ARM\"      OrderNumber=\"15\" Mandatory=\"Yes\"/>\n        <ItemRef ItemOID=\"IT.DM.ACTARMCD\" OrderNumber=\"16\" Mandatory=\"No\"/>\n        <ItemRef ItemOID=\"IT.DM.ACTARM\"   OrderNumber=\"17\" Mandatory=\"No\"/>\n        <ItemRef ItemOID=\"IT.DM.COUNTRY\"  OrderNumber=\"18\" Mandatory=\"Yes\"/>\n        <ItemRef ItemOID=\"IT.DM.DMDTC\"    OrderNumber=\"19\" Mandatory=\"No\"/>\n        <ItemRef ItemOID=\"IT.DM.DMDY\"     OrderNumber=\"20\" Mandatory=\"No\"/>\n      </ItemGroupDef>\n\n      <!-- ========== ItemGroupDef: AE ========== -->\n      <ItemGroupDef OID=\"IG.AE\" Name=\"AE\" Domain=\"AE\"\n                    Repeating=\"Yes\" IsReferenceData=\"No\"\n                    def:Structure=\"One record per adverse event per subject\"\n                    def:DatasetName=\"AE\"\n                    def:Class=\"EVENTS\"\n                    def:HasNoData=\"No\">\n        <Description><TranslatedText>Adverse Events</TranslatedText></Description>\n        <ItemRef ItemOID=\"IT.AE.STUDYID\"  OrderNumber=\"1\"  Mandatory=\"Yes\"/>\n        <ItemRef ItemOID=\"IT.AE.DOMAIN\"   OrderNumber=\"2\"  Mandatory=\"Yes\"/>\n        <ItemRef ItemOID=\"IT.AE.USUBJID\"  OrderNumber=\"3\"  Mandatory=\"Yes\"/>\n        <ItemRef ItemOID=\"IT.AE.AESEQ\"    OrderNumber=\"4\"  Mandatory=\"Yes\"/>\n        <ItemRef ItemOID=\"IT.AE.AESPID\"   OrderNumber=\"5\"  Mandatory=\"No\"/>\n        <ItemRef ItemOID=\"IT.AE.AETERM\"   OrderNumber=\"6\"  Mandatory=\"Yes\"/>\n        <ItemRef ItemOID=\"IT.AE.AEMODIFY\" OrderNumber=\"7\"  Mandatory=\"No\"/>\n        <ItemRef ItemOID=\"IT.AE.AEDECOD\"  OrderNumber=\"8\"  Mandatory=\"No\"/>\n        <ItemRef ItemOID=\"IT.AE.AEBODSYS\" OrderNumber=\"9\"  Mandatory=\"No\"/>\n        <ItemRef ItemOID=\"IT.AE.AESER\"    OrderNumber=\"10\" Mandatory=\"No\"/>\n        <ItemRef ItemOID=\"IT.AE.AESEV\"    OrderNumber=\"11\" Mandatory=\"No\"/>\n        <ItemRef ItemOID=\"IT.AE.AEREL\"    OrderNumber=\"12\" Mandatory=\"No\"/>\n        <ItemRef ItemOID=\"IT.AE.AEOUT\"    OrderNumber=\"13\" Mandatory=\"No\"/>\n        <ItemRef ItemOID=\"IT.AE.AESTDTC\"  OrderNumber=\"14\" Mandatory=\"No\"/>\n        <ItemRef ItemOID=\"IT.AE.AEENDTC\"  OrderNumber=\"15\" Mandatory=\"No\"/>\n        <ItemRef ItemOID=\"IT.AE.AESTDY\"   OrderNumber=\"16\" Mandatory=\"No\"/>\n        <ItemRef ItemOID=\"IT.AE.AEENDY\"   OrderNumber=\"17\" Mandatory=\"No\"/>\n        <ItemRef ItemOID=\"IT.AE.AEACN\"    OrderNumber=\"18\" Mandatory=\"No\"/>\n      </ItemGroupDef>\n\n    </MetaDataVersion>\n  </Study>\n</ODM>\n```\n\n---\n\n## Summary Statistics\n\n| Metric | DM | AE | Total |\n|--------|----|----|-------|\n| Variables | 20 | 18 | 38 |\n| Mandatory variables | 8 | 4 | 12 |\n| Controlled terminology refs | 5 (SEX, RACE, ETHNIC, AGEU, ARMCD, COUNTRY) | 6 (AESER, AESEV, AEREL, AEOUT, AEACN, AEDECOD, AEBODSYS) | 13 codelists |\n| Derived variables | 1 (USUBJID) | 3 (AESEQ, AESTDY, AEENDY) | 4 methods |\n| Origin: CRF | 11 | 8 | 19 |\n| Origin: Derived | 1 | 3 | 4 |\n| Origin: Assigned | 8 | 7 | 15 |",
      "skills_loaded": [
        "data-quality",
        "define-xml-builder",
        "define-xml-validator",
        "workflow",
        "workflow-status"
      ],
      "skills_count": 5,
      "skills_tokens": 7513,
      "principles_used": [],
      "principles_count": 0,
      "context_strategy": "APS: 5 loaded | 0 truncated | 0 dropped | 7513/8000 tokens",
      "tokens_in": 27525,
      "tokens_out": 5691,
      "dim_completeness": 5.0,
      "dim_terminology": 5.0,
      "dim_structure": 5.0,
      "dim_reasoning": "The output includes all requested datasets (DM, AE) with complete variable-level metadata, controlled terminology references, derivation methods, and a valid XML skeleton. It meets all mandatory criteria for a score of 4+ and also provides a production-ready XML structure with schema references, making it suitable for a score of 5.",
      "quality_score": 5.0,
      "auto_metrics": {
        "response_length": 18396,
        "word_count": 1999,
        "cdisc_term_count": 197,
        "cdisc_terms_found": [
          "USUBJID",
          "STUDYID",
          "SDTM",
          "CDISC",
          "CT",
          "RFSTDTC",
          "RFENDTC",
          "AESTDTC",
          "AEENDTC",
          "AEDECOD",
          "AEBODSYS",
          "AETERM",
          "AESEV",
          "AESER",
          "ARM",
          "ARMCD",
          "AGE",
          "AGEU",
          "SEX",
          "RACE",
          "ETHNIC",
          "MedDRA",
          "ISO 8601",
          "Define.xml",
          "PP"
        ],
        "code_block_count": 1,
        "codelist_ref_count": 0,
        "table_row_count": 76
      },
      "cost_usd": 5.81616e-05,
      "agent_model": "glm-5",
      "agent_duration_ms": 114878,
      "agent_num_turns": 1,
      "run_id": 1,
      "is_error_response": false,
      "run_key": "task-21-define-sdtm::agent_framework::1",
      "prefix_judgment": {
        "policy": "first_4000_characters",
        "response_characters_judged": 4000,
        "dim_completeness": 2.0,
        "dim_terminology": 3.0,
        "dim_structure": 3.0,
        "dim_reasoning": "Completeness: 2 - The spec is missing the second half of the AE variable list (cut off at AESTDTC), has no controlled terminology references, and lacks derivation logic or code snippets. Terminology: ",
        "quality_score": 2.67,
        "judge_model_requested": "deepseek-chat"
      },
      "full_response_judgment": {
        "policy": "full_stored_response_no_character_truncation",
        "truncated": false,
        "response_characters_judged": 18396,
        "response_bytes_judged": 18408,
        "response_sha256": "7855a63904f334d4fefdb5ece9f05edbac93cadfe2082d9425de2da2482fefbf",
        "rendered_prompt_characters": 20158,
        "rendered_prompt_bytes": 20170,
        "rendered_prompt_sha256": "7e5688700865b41ecd6fe74c85ede8bb6da1bbfe16e0ae68a341a5e67a4e6d75",
        "scores": {
          "completeness": 5.0,
          "terminology": 5.0,
          "structure": 5.0
        },
        "reasoning": "The output includes all requested datasets (DM, AE) with complete variable-level metadata, controlled terminology references, derivation methods, and a valid XML skeleton. It meets all mandatory criteria for a score of 4+ and also provides a production-ready XML structure with schema references, making it suitable for a score of 5.",
        "judge_model_requested": "deepseek-v4-flash",
        "judge_model_returned": "deepseek-v4-flash",
        "judge_response_id": "d0ef227b-8543-4077-8f39-77ddad90cada",
        "system_fingerprint": "fp_8b330d02d0_prod0820_fp8_kvcache_20260402",
        "created": 1784905992,
        "finish_reason": "stop",
        "judge_input_tokens": 6370,
        "judge_output_tokens": 96,
        "judge_cost_usd": 5.81616e-05,
        "judge_parse_error": null,
        "attempts": [
          {
            "attempt": 1,
            "request_error": null,
            "judge_parse_error": null,
            "judge_model_returned": "deepseek-v4-flash",
            "judge_response_id": "d0ef227b-8543-4077-8f39-77ddad90cada",
            "system_fingerprint": "fp_8b330d02d0_prod0820_fp8_kvcache_20260402",
            "created": 1784905992,
            "finish_reason": "stop",
            "usage": {
              "prompt_tokens": 6370,
              "completion_tokens": 96,
              "total_tokens": 6466,
              "prompt_cache_hit_tokens": 6272,
              "prompt_cache_miss_tokens": 98
            },
            "cost_usd": 5.81616e-05,
            "raw_content": "{\n  \"completeness\": 5,\n  \"terminology\": 5,\n  \"structure\": 5,\n  \"reasoning\": \"The output includes all requested datasets (DM, AE) with complete variable-level metadata, controlled terminology references, derivation methods, and a valid XML skeleton. It meets all mandatory criteria for a score of 4+ and also provides a production-ready XML structure with schema references, making it suitable for a score of 5.\"\n}",
            "raw_content_sha256": "44a55391f5ea5f084e2c31fe4dbefb688d9475ef5bb316b07a87c6bb86038aa2",
            "completed_at": "2026-07-24T15:13:14.430536+00:00"
          }
        ],
        "judged_at": "2026-07-24T15:13:14.430536+00:00"
      },
      "judge_model_requested": "deepseek-v4-flash",
      "judge_model_returned": "deepseek-v4-flash",
      "judge_response_id": "d0ef227b-8543-4077-8f39-77ddad90cada",
      "judge_input_tokens": 6370,
      "judge_output_tokens": 96,
      "judge_cost_usd": 5.81616e-05,
      "judge_parse_error": null
    },
    {
      "experiment_id": "20260410_081620_task-07-sdtm-ae_agent_framework",
      "timestamp": "2026-04-10T08:16:20.844249",
      "task_id": "task-07-sdtm-ae",
      "graph_node": "sdtm-ae-mapping",
      "layer": 2,
      "condition": "agent_framework",
      "prompt_preview": "--=={ context: sdtm-ae-mapping }==--\n\n## Graph Position\nLayer: 2 (SDTM Creation)\nNode:  sdtm-ae-mapping\nBudget: 6688/8000 tokens (APS: 4 loaded | 1 truncated | 0 dropped | 6688/8000 tokens)\n\n## Skills (5 active, ~6688 tokens)\n--------------------------------------------------\n  [FULL ] [GLOB] data-quality                   ~1690 tokens (p=0.23)\n  [TRUNC] [GLOB] sdtm-ae-mapper                 ~1959 tokens (p=0.23)\n  [FULL ] [GLOB] sdtm-validator                 ~782 tokens (p=0.23)\n  [FULL ] [GLO",
      "response": "# SDTM AE Domain Mapping Specification\n\n## Source-to-Target Variable Mapping\n\n### 1. AETERM (Verbatim Term)\n\n| Target Variable | SDTM Role | Derivation |\n|-----------------|-----------|------------|\n| **AETERM** | Synonym Qualifier | Direct copy of `AETERM_RAW` |\n\n**Rule:** AETERM must match the source exactly \u2014 **never modify verbatim terms**. This is a critical constraint. Trailing spaces may be trimmed but spelling, capitalization, and punctuation are preserved as-is from the CRF.\n\n```\nAETERM = AETERM_RAW  // Verbatim \u2014 no transformation\n```\n\n---\n\n### 2. AEDECOD / AEBODSYS (MedDRA Coding)\n\nMedDRA coding is derived via **dictionary lookup** from AETERM_RAW \u2014 never auto-assigned without a dictionary match.\n\n| Target Variable | SDTM Role | Derivation |\n|-----------------|-----------|------------|\n| **AEDECOD** | Standard Qualifier | MedDRA Preferred Term (PT) \u2014 dictionary lookup of `AETERM_RAW` |\n| **AEBODSYS** | Standard Qualifier | MedDRA Primary System Organ Class (SOC) \u2014 from hierarchy above PT |\n| **AEHLT** | Standard Qualifier | MedDRA High-Level Term \u2014 from hierarchy (recommended) |\n| **AEHLGT** | Standard Qualifier | MedDRA High-Level Group Term \u2014 from hierarchy (recommended) |\n\n**Coding Hierarchy Path:**\n```\nAETERM_RAW \u2192 Dictionary Lookup \u2192 AEDECOD (PT) \u2192 AEHLT \u2192 AEHLGT \u2192 AEBODSYS (SOC)\n```\n\n**Edge Cases:**\n\n| Scenario | Action |\n|----------|--------|\n| AETERM_RAW has exact dictionary match | Assign PT \u2192 full hierarchy |\n| AETERM_RAW has no match | Flag for manual coding; **do not assign** AEDECOD |\n| Multiple possible PTs | Use lowest-level match; escalate for clinical review |\n| AETERM_RAW is blank | **Abort** \u2014 AETERM must never be blank (P21 rule SD0001) |\n\n**Example Mapping:**\n```\nAETERM_RAW = \"Headache\"\n  \u2192 AEDECOD  = \"Headache\"          (PT)\n  \u2192 AEHLT    = \"Headache disorders\" (HLT)\n  \u2192 AEHLGT   = \"Nervous system disorders\" (HLGT)\n  \u2192 AEBODSYS = \"Nervous system disorders\" (SOC)\n```\n\n---\n\n### 3. AESTDTC / AEENDTC (ISO 8601 Dates)\n\n| Target Variable | SDTM Role | Derivation |\n|-----------------|-----------|------------|\n| **AESTDTC** | Timing | ISO 8601 conversion of `AESTDAT` |\n| **AEENDTC** | Timing | ISO 8601 conversion of `AEENDAT` |\n\n**Conversion Rules:**\n\n| Raw Format (AESTDAT/AEENDAT) | ISO 8601 Output | Notes |\n|-------------------------------|-----------------|-------|\n| `15-JAN-2024` | `2024-01-15` | Full date |\n| `2024/01/15` | `2024-01-15` | Standardize separators |\n| `01/15/2024` (US format) | `2024-01-15` | Interpret per study config locale |\n| `JAN-2024` | `2024-01` | Partial \u2014 day unknown |\n| `2024` | `2024` | Year only |\n| Missing/blank | *(empty)* | Leave blank; do not invent dates |\n\n**Partial Date Handling:**\n\n| Scenario | AESTDTC | AEENDTC | Notes |\n|----------|---------|---------|-------|\n| Both dates complete | Full ISO date | Full ISO date | Normal case |\n| Start known, end unknown | Full ISO date | *(empty)* | Continuing AE \u2014 leave AEENDTC blank |\n| Only month/year known | `YYYY-MM` | `YYYY-MM` | Preserve partial precision |\n| Start after end | **Flag error** | \u2014 | AESTDTC must be \u2264 AEENDTC (P21 SD0053) |\n\n**Consistency Check:**\n```\nASSERT: AESTDTC <= AEENDTC  (when both populated)\n```\n\n---\n\n### 4. AESEV (Severity) \u2014 CDISC CT C66769\n\n| Raw `AESEV` Value | CDISC CT Code | AESEV Output |\n|---------------------|---------------|--------------|\n| `Mild`, `1`, `MILD` | C66769.x | **MILD** |\n| `Moderate`, `2`, `MOD` | C66769.x | **MODERATE** |\n| `Severe`, `3`, `SEV` | C66769.x | **SEVERE** |\n\n**Mapping Logic:**\n```python\nseverity_map = {\n    \"mild\": \"MILD\", \"1\": \"MILD\", \"mild\": \"MILD\",\n    \"moderate\": \"MODERATE\", \"2\": \"MODERATE\", \"mod\": \"MODERATE\",\n    \"severe\": \"SEVERE\", \"3\": \"SEVERE\", \"sev\": \"SEVERE\"\n}\nAESEV = severity_map[normalize(AESEV_RAW)]  // Case-insensitive lookup\n```\n\n**Validation:** If AESEV_RAW does not match any known value \u2192 flag as conformance error.\n\n---\n\n### 5. AESER (Seriousness) \u2014 CDISC CT C66763\n\n| Raw `AESER` Value | AESER Output | Notes |\n|---------------------|--------------|-------|\n| `Yes`, `Y`, `1`, `yes` | **Y** | Serious event |\n| `No`, `N`, `0`, `no` | **N** | Non-serious event |\n\n**Critical Consistency Rule (P21 SD1001):**\n```\nAESER = 'Y'  IF AND ONLY IF  any seriousness criterion = 'Y':\n  AESDTH  (Results in death)\n  AESLIFE (Is life-threatening)\n  AESHOSP (Requires hospitalization)\n  AESDISAB (Causes disability)\n  AESCONG (Congenital anomaly)\n  AESMIE  (Other medically important event)\n```\n\nIf individual seriousness criteria flags (AESDTH, AESLIFE, AESHOSP, etc.) are present, AESER must be **derived from them** rather than taken directly from the raw field. If raw AESER says \"Y\" but no criterion is \"Y\", that is a consistency failure.\n\n---\n\n## Required Companion Variables\n\nThese must accompany every AE record:\n\n| Variable | Derivation | Example |\n|----------|------------|---------|\n| **STUDYID** | From study config | `STUDY001` |\n| **DOMAIN** | Fixed value | `AE` |\n| **USUBJID** | `{STUDYID}-{SITEID}-{SUBJID}` | `STUDY001-001-001` |\n| **AESEQ** | Sequential within USUBJID | `1, 2, 3...` |\n\n**AESEQ Logic:**\n```\nSort by: USUBJID, AESTDTC, AETERM\nWithin each USUBJID: assign AESEQ = 1, 2, 3, ... in chronological order\n```\n\n---\n\n## Additional Variable: AEREL (Causality)\n\nWhile not explicitly requested in the target list, the raw source includes `AEREL`:\n\n| Raw `AEREL` Value | CDISC CT Output |\n|---------------------|-----------------|\n| Related / Yes | **RELATED** |\n| Not Related / No | **NOT RELATED** |\n| Possibly Related | **POSSIBLY RELATED** |\n\n*(Map to the CDISC CT submission values per your study's controlled terminology version.)*\n\n---\n\n## Summary Mapping Table\n\n| Source (RAW) | Target (SDTM) | Transformation |\n|-------------|---------------|----------------|\n| `AETERM_RAW` | **AETERM** | Direct copy (verbatim) |\n| `AETERM_RAW` | **AEDECOD** | MedDRA PT via dictionary lookup |\n| MedDRA hierarchy | **AEBODSYS** | SOC from coding hierarchy |\n| `AESTDAT` | **AESTDTC** | Convert to ISO 8601 (`YYYY-MM-DD`) |\n| `AEENDAT` | **AEENDTC` | Convert to ISO 8601 (`YYYY-MM-DD`) |\n| `AESEV` | **AESEV** | Map to CDISC CT C66769 (MILD/MODERATE/SEVERE) |\n| `AESER` | **AESER** | Map to Y/N; validate against seriousness criteria |\n| `AEREL` | **AEREL** | Map to CDISC CT causality values |\n| *(derived)* | **STUDYID** | From study config |\n| *(derived)* | **DOMAIN** | Fixed: `AE` |\n| *(derived)* | **USUBJID** | `{STUDYID}-{SITEID}-{SUBJID}` |\n| *(derived)* | **AESEQ** | Sequential per subject |\n\n---\n\n## Validation Checklist (Pre-Output)\n\n| # | Check | Rule |\n|---|-------|------|\n| 1 | AETERM populated | Never blank (P21 SD0001) |\n| 2 | AEDECOD populated | All records MedDRA-coded (P21 SD0002) |\n| 3 | AEBODSYS populated | Derived from MedDRA hierarchy (P21 SD0003) |\n| 4 | AESTDTC \u2264 AEENDTC | Date logic valid (P21 SD0053) |\n| 5 | AESER consistent | AESER='Y' iff any criterion='Y' (P21 SD1001) |\n| 6 | AESEQ unique | Within each USUBJID |\n| 7 | USUBJID in DM | Cross-domain referential integrity |\n| 8 | ISO 8601 dates | All *DTC variables properly formatted (P21 SD0051) |",
      "skills_loaded": [
        "data-quality",
        "sdtm-ae-mapper",
        "sdtm-validator",
        "workflow",
        "workflow-status"
      ],
      "skills_count": 5,
      "skills_tokens": 6688,
      "principles_used": [],
      "principles_count": 0,
      "context_strategy": "APS: 4 loaded | 1 truncated | 0 dropped | 6688/8000 tokens",
      "tokens_in": 27038,
      "tokens_out": 2518,
      "dim_completeness": 5.0,
      "dim_terminology": 5.0,
      "dim_structure": 5.0,
      "dim_reasoning": "The specification covers all requested items with detailed derivation logic, edge cases, validation checks, and code snippets. CDISC terminology is correctly used with controlled terminology references (C66769, C66763), ISO 8601 date handling, and cross-domain consistency rules. The output is well-structured with tables, code blocks, and a validation checklist, making it production-ready.",
      "quality_score": 5.0,
      "auto_metrics": {
        "response_length": 7043,
        "word_count": 1103,
        "cdisc_term_count": 113,
        "cdisc_terms_found": [
          "USUBJID",
          "STUDYID",
          "SDTM",
          "CDISC",
          "CT",
          "AESTDTC",
          "AEENDTC",
          "AEDECOD",
          "AEBODSYS",
          "AETERM",
          "AESEV",
          "AESER",
          "MedDRA",
          "ISO 8601"
        ],
        "code_block_count": 1,
        "codelist_ref_count": 6,
        "table_row_count": 77
      },
      "cost_usd": 0.00040838000000000007,
      "agent_model": "glm-5",
      "agent_duration_ms": 69694,
      "agent_num_turns": 1,
      "run_id": 0,
      "is_error_response": false,
      "run_key": "task-07-sdtm-ae::agent_framework::0",
      "prefix_judgment": {
        "policy": "first_4000_characters",
        "response_characters_judged": 4000,
        "dim_completeness": 5.0,
        "dim_terminology": 5.0,
        "dim_structure": 4.0,
        "dim_reasoning": "COMPLETENESS: All requested items (AETERM, AEDECOD, AEBODSYS, AESTDTC, AEENDTC, AESEV, AESER) are addressed with detailed derivation logic, edge cases, and explicit validation checks (P21 rules SD0001",
        "quality_score": 4.67,
        "judge_model_requested": "deepseek-chat"
      },
      "full_response_judgment": {
        "policy": "full_stored_response_no_character_truncation",
        "truncated": false,
        "response_characters_judged": 7043,
        "response_bytes_judged": 7095,
        "response_sha256": "cc7001557b2e69bd98f4920f582daff65c64a948b98fb3a9cac4cd1ccbb9f8d6",
        "rendered_prompt_characters": 8862,
        "rendered_prompt_bytes": 8914,
        "rendered_prompt_sha256": "08c9c6873575d1400c4fb57edd983b6ec263d8b5f095d58122b12a05e9c044c9",
        "scores": {
          "completeness": 5.0,
          "terminology": 5.0,
          "structure": 5.0
        },
        "reasoning": "The specification covers all requested items with detailed derivation logic, edge cases, validation checks, and code snippets. CDISC terminology is correctly used with controlled terminology references (C66769, C66763), ISO 8601 date handling, and cross-domain consistency rules. The output is well-structured with tables, code blocks, and a validation checklist, making it production-ready.",
        "judge_model_requested": "deepseek-v4-flash",
        "judge_model_returned": "deepseek-v4-flash",
        "judge_response_id": "05599ed3-83d4-4452-a49a-25124332a7d0",
        "system_fingerprint": "fp_8b330d02d0_prod0820_fp8_kvcache_20260402",
        "created": 1784906031,
        "finish_reason": "stop",
        "judge_input_tokens": 2705,
        "judge_output_tokens": 106,
        "judge_cost_usd": 0.00040838000000000007,
        "judge_parse_error": null,
        "attempts": [
          {
            "attempt": 1,
            "request_error": null,
            "judge_parse_error": null,
            "judge_model_returned": "deepseek-v4-flash",
            "judge_response_id": "05599ed3-83d4-4452-a49a-25124332a7d0",
            "system_fingerprint": "fp_8b330d02d0_prod0820_fp8_kvcache_20260402",
            "created": 1784906031,
            "finish_reason": "stop",
            "usage": {
              "prompt_tokens": 2705,
              "completion_tokens": 106,
              "total_tokens": 2811,
              "prompt_cache_hit_tokens": 0,
              "prompt_cache_miss_tokens": 2705
            },
            "cost_usd": 0.00040838000000000007,
            "raw_content": "{\n  \"completeness\": 5,\n  \"terminology\": 5,\n  \"structure\": 5,\n  \"reasoning\": \"The specification covers all requested items with detailed derivation logic, edge cases, validation checks, and code snippets. CDISC terminology is correctly used with controlled terminology references (C66769, C66763), ISO 8601 date handling, and cross-domain consistency rules. The output is well-structured with tables, code blocks, and a validation checklist, making it production-ready.\"\n}",
            "raw_content_sha256": "19eed0b635244d39630449db3781f13c866b5e56683d80ce3b5dfc535ebd3bc4",
            "completed_at": "2026-07-24T15:13:53.430866+00:00"
          }
        ],
        "judged_at": "2026-07-24T15:13:53.430866+00:00"
      },
      "judge_model_requested": "deepseek-v4-flash",
      "judge_model_returned": "deepseek-v4-flash",
      "judge_response_id": "05599ed3-83d4-4452-a49a-25124332a7d0",
      "judge_input_tokens": 2705,
      "judge_output_tokens": 106,
      "judge_cost_usd": 0.00040838000000000007,
      "judge_parse_error": null
    },
    {
      "experiment_id": "20260410_081710_task-10-p21-sdtm_agent_only",
      "timestamp": "2026-04-10T08:17:10.548665",
      "task_id": "task-10-p21-sdtm",
      "graph_node": "p21-sdtm-validation",
      "layer": 3,
      "condition": "agent_only",
      "prompt_preview": "Review P21 validation results:\n\nERRORS:\n1. RFSTDTC missing (5 subjects)\n2. Invalid ARMCD \"UNKN\"\n3. AESTDTC > AEENDTC (3 records)\n4. AEDECOD null (12 records)\n\nProvide:\n1. Severity ranking\n2. Resolution steps",
      "response": "# P21 Validation Results \u2014 Severity Ranking & Resolutions\n\n## Severity Ranking (Critical \u2192 Low)\n\n| Rank | Error | Severity | Records | Impact |\n|------|-------|----------|---------|--------|\n| 1 | AEDECOD null | **CRITICAL** | 12 | Breaks safety analysis; required MedDRA coding missing |\n| 2 | AESTDTC > AEENDTC | **HIGH** | 3 | Logical inconsistency; calls data integrity into question |\n| 3 | RFSTDTC missing | **HIGH** | 5 | Breaks all relative timing derivations (--STDY, --ENDY) |\n| 4 | Invalid ARMCD \"UNKN\" | **MEDIUM** | N/A | Controlled terminology violation; non-standard code |\n\n---\n\n## Resolution Steps\n\n### 1. AEDECOD null (12 records) \u2014 CRITICAL\n\n- Query source system (EDC) to confirm raw verbatim terms (`AETERM`) exist for all 12 records.\n- Submit terms to MedDRA coding vendor/medical coder for assignment.\n- Repopulate `AEDECOD` with the preferred term; also verify `AEBODSYS` (System Organ Class) is populated.\n- Re-run P21 check to confirm zero nulls.\n- **Root cause**: Likely uncoded terms not flagged in EDC workflow. Recommend adding an edit check requiring coding before CRF submission.\n\n### 2. AESTDTC > AEENDTC (3 records) \u2014 HIGH\n\n- Pull the 3 records and compare `AESTDTC` vs `AEENDTC` against source (EDC/CRF).\n- Most likely causes:\n  - **Day/month transposition** (e.g., `2025-03-05` vs `2025-05-03`)\n  - **Data entry error** \u2014 end date entered as start or vice versa\n  - **Partial dates** resolved incorrectly during ISO 8601 conversion\n- Correct the dates based on source documentation. If end date is truly unknown, set `AEENDTC` to null rather than an incorrect date.\n- Add a programmatic edit check: `if AESTDTC > AEENDTC then flag`.\n\n### 3. RFSTDTC missing (5 subjects) \u2014 HIGH\n\n- Identify the 5 subjects from DM domain where `RFSTDTC` is null.\n- Check if these subjects were screened but never dosed (`ARMCD = \"SCRNFAIL\"` or `\"NOTASSGN\"`). If so, `RFSTDTC` is expected to be null \u2014 confirm these are screen failures, not enrolled subjects.\n- If subjects **were** dosed, pull the reference start date from the dosing/EX domain and backfill `RFSTDTC` in DM.\n- Re-derive any dependent timing variables (`--STDY`, `--ENDY`) after correction.\n- **Root cause**: Often a DM derivation issue \u2014 ensure the DM build correctly sources reference date from EX or protocol-specific reference event.\n\n### 4. Invalid ARMCD \"UNKN\" \u2014 MEDIUM\n\n- `ARMCD` must use a controlled terminology value (from the ARM dataset) or the standard null flavor `\"UNASSIGNED\"` for unrandomized subjects.\n- `\"UNKN\"` is not a valid controlled term.\n- **Fix**: Determine the subject's actual disposition:\n  - If not randomized \u2192 change `ARMCD` to `\"NOTASSGN\"` (per CDISC)\n  - If randomized but arm unknown at snapshot time \u2192 change to `\"UNASSIGNED\"`\n  - If a valid arm exists \u2192 assign the correct `ARMCD` value\n- Verify `ARM` (Actual Arm Name) is consistent with the corrected `ARMCD`.\n- Add a controlled terminology lookup in the ARM derivation step to catch invalid codes.\n\n---\n\n## Validation Re-Run Checklist\n\nAfter all corrections:\n\n1. Re-generate affected domains (DM, AE at minimum)\n2. Re-run P21 engine against updated datasets\n3. Confirm all 4 error types resolve to **0 findings**\n4. Document corrections in a data changes log for the CSR data review footnote",
      "skills_loaded": [],
      "skills_count": 0,
      "skills_tokens": 0,
      "principles_used": [],
      "principles_count": 0,
      "context_strategy": "none",
      "tokens_in": 25812,
      "tokens_out": 1171,
      "dim_completeness": 4.0,
      "dim_terminology": 4.0,
      "dim_structure": 4.0,
      "dim_reasoning": "Completeness: All four errors are addressed with severity ranking and resolution steps, including root cause analysis and re-run checklist. Lacks explicit derivation logic or code snippets. Terminology: Correct use of SDTM variable names (RFSTDTC, ARMCD, AEDECOD, AESTDTC, AEENDTC), MedDRA, ISO 8601, and controlled terminology concepts. Could include specific codelist references. Structure: Well-organized with tables and clear sections, but not in a machine-readable format like JSON or YAML.",
      "quality_score": 4.0,
      "auto_metrics": {
        "response_length": 3264,
        "word_count": 528,
        "cdisc_term_count": 40,
        "cdisc_terms_found": [
          "CDISC",
          "RFSTDTC",
          "AESTDTC",
          "AEENDTC",
          "AEDECOD",
          "AEBODSYS",
          "AETERM",
          "ARM",
          "ARMCD",
          "MedDRA",
          "ISO 8601"
        ],
        "code_block_count": 0,
        "codelist_ref_count": 0,
        "table_row_count": 6
      },
      "cost_usd": 0.00022736000000000002,
      "agent_model": "glm-5",
      "agent_duration_ms": 44613,
      "agent_num_turns": 1,
      "run_id": 1,
      "is_error_response": false,
      "run_key": "task-10-p21-sdtm::agent_only::1",
      "prefix_judgment": {
        "policy": "first_4000_characters",
        "response_characters_judged": 3264,
        "dim_completeness": 4.0,
        "dim_terminology": 4.0,
        "dim_structure": 3.0,
        "dim_reasoning": "COMPLETENESS: All four errors are addressed with detailed resolution steps, root cause analysis, and a re-run checklist, meeting the criteria for implementation details. TERMINOLOGY: Uses correct SDTM",
        "quality_score": 3.67,
        "judge_model_requested": "deepseek-chat"
      },
      "full_response_judgment": {
        "policy": "full_stored_response_no_character_truncation",
        "truncated": false,
        "response_characters_judged": 3264,
        "response_bytes_judged": 3288,
        "response_sha256": "1af826dede83de3f5055a13a329f306155608330e484c62ad7d1e2df6a549735",
        "rendered_prompt_characters": 5005,
        "rendered_prompt_bytes": 5029,
        "rendered_prompt_sha256": "7090a6a7fbcbe6e62b7d1cdb29deaf3ab92e2167fa73acbec5d72073a9b5aae5",
        "scores": {
          "completeness": 4.0,
          "terminology": 4.0,
          "structure": 4.0
        },
        "reasoning": "Completeness: All four errors are addressed with severity ranking and resolution steps, including root cause analysis and re-run checklist. Lacks explicit derivation logic or code snippets. Terminology: Correct use of SDTM variable names (RFSTDTC, ARMCD, AEDECOD, AESTDTC, AEENDTC), MedDRA, ISO 8601, and controlled terminology concepts. Could include specific codelist references. Structure: Well-organized with tables and clear sections, but not in a machine-readable format like JSON or YAML.",
        "judge_model_requested": "deepseek-v4-flash",
        "judge_model_returned": "deepseek-v4-flash",
        "judge_response_id": "c50cf329-ac05-44ed-b4b2-23a0a621173b",
        "system_fingerprint": "fp_8b330d02d0_prod0820_fp8_kvcache_20260402",
        "created": 1784906031,
        "finish_reason": "stop",
        "judge_input_tokens": 1340,
        "judge_output_tokens": 142,
        "judge_cost_usd": 0.00022736000000000002,
        "judge_parse_error": null,
        "attempts": [
          {
            "attempt": 1,
            "request_error": null,
            "judge_parse_error": null,
            "judge_model_returned": "deepseek-v4-flash",
            "judge_response_id": "c50cf329-ac05-44ed-b4b2-23a0a621173b",
            "system_fingerprint": "fp_8b330d02d0_prod0820_fp8_kvcache_20260402",
            "created": 1784906031,
            "finish_reason": "stop",
            "usage": {
              "prompt_tokens": 1340,
              "completion_tokens": 142,
              "total_tokens": 1482,
              "prompt_cache_hit_tokens": 0,
              "prompt_cache_miss_tokens": 1340
            },
            "cost_usd": 0.00022736000000000002,
            "raw_content": "{\n  \"completeness\": 4,\n  \"terminology\": 4,\n  \"structure\": 4,\n  \"reasoning\": \"Completeness: All four errors are addressed with severity ranking and resolution steps, including root cause analysis and re-run checklist. Lacks explicit derivation logic or code snippets. Terminology: Correct use of SDTM variable names (RFSTDTC, ARMCD, AEDECOD, AESTDTC, AEENDTC), MedDRA, ISO 8601, and controlled terminology concepts. Could include specific codelist references. Structure: Well-organized with tables and clear sections, but not in a machine-readable format like JSON or YAML.\"\n}",
            "raw_content_sha256": "b83c933e32cc314d787ecb5088c75f8f1452e50c1e759a954b4b4571cc8c2e19",
            "completed_at": "2026-07-24T15:13:54.017159+00:00"
          }
        ],
        "judged_at": "2026-07-24T15:13:54.017159+00:00"
      },
      "judge_model_requested": "deepseek-v4-flash",
      "judge_model_returned": "deepseek-v4-flash",
      "judge_response_id": "c50cf329-ac05-44ed-b4b2-23a0a621173b",
      "judge_input_tokens": 1340,
      "judge_output_tokens": 142,
      "judge_cost_usd": 0.00022736000000000002,
      "judge_parse_error": null
    },
    {
      "experiment_id": "20260410_081749_task-01-sap-parse_agent_framework",
      "timestamp": "2026-04-10T08:17:49.559235",
      "task_id": "task-01-sap-parse",
      "graph_node": "sap-review",
      "layer": 0,
      "condition": "agent_framework",
      "prompt_preview": "--=={ context: sap-review }==--\n\n## Graph Position\nLayer: 0 (Protocol & Planning)\nNode:  sap-review\nBudget: 5704/8000 tokens (APS: 4 loaded | 0 truncated | 0 dropped | 5704/8000 tokens)\n\n## Skills (4 active, ~5704 tokens)\n--------------------------------------------------\n  [FULL ] [GLOB] data-quality                   ~1690 tokens (p=0.22)\n  [FULL ] [GLOB] sap-parser                     ~1757 tokens (p=0.22)\n  [FULL ] [GLOB] workflow                       ~1437 tokens (p=0.22)\n  [FULL ] [GLOB] ",
      "response": "# SAP Extraction Results \u2014 Study NCT048\n\n---\n\n## 1. Primary Endpoint\n\n| Field | Value |\n|-------|-------|\n| **ID** | `ENDPT-PRI-001` |\n| **Name** | Change from Baseline in HbA1c (%) |\n| **Timepoint** | Week 24 |\n| **Description** | Change from baseline in glycated hemoglobin (HbA1c) percentage at Week 24 |\n| **Hypothesis** | Not explicitly stated in excerpt \u2014 flag as ambiguity |\n| **Method** | MMRM (Mixed Model for Repeated Measures) |\n| **Population** | ITT (Intent-to-Treat) |\n| **Dataset** | ADaM (expected: `ADHGB` or equivalent \u2014 not specified in excerpt) |\n\n---\n\n## 2. Secondary Endpoints\n\n| ID | Name | Type | Timepoint | Population |\n|----|------|------|-----------|------------|\n| `ENDPT-SEC-001` | Proportion of subjects achieving HbA1c < 7.0% | Binary responder | Week 24 | ITT |\n| `ENDPT-SEC-002` | Change from baseline in body weight | Continuous | *Not specified* | ITT (presumed) |\n\n> \u26a0\ufe0f **Issue flagged:** Body weight endpoint timepoint not stated \u2014 likely Week 24 but requires SAP confirmation.\n\n---\n\n## 3. Population Definitions\n\n| ID | Name | Criteria | Derivation (ADSL flag) |\n|----|------|----------|------------------------|\n| `POP-ITT-001` | **ITT (Intent-to-Treat)** | All randomized subjects who received at least one dose | `ITTFL = 'Y'` |\n| `POP-SAF-001` | **Safety** | All subjects who received any dose of study drug | `SAFFL = 'Y'` |\n| `POP-PP-001` | **Per-Protocol** | Subjects with no major protocol deviations | `PPFL = 'Y'` |\n\n> \u26a0\ufe0f **Issue flagged:** PP exclusion criteria state \"no deviations\" but the specific deviation categories that constitute a *major* deviation are not defined in the excerpt. This must be confirmed from the full SAP.\n\n---\n\n## 4. Statistical Method\n\n| Field | Value |\n|-------|-------|\n| **ID** | `METHOD-001` |\n| **Name** | MMRM (Mixed Model for Repeated Measures) |\n| **Applied to** | Primary endpoint \u2014 Change from Baseline in HbA1c at Week 24 |\n| **Alpha** | Not stated in excerpt |\n| **Stratification factors** | Not stated in excerpt |\n| **Assumptions** | MAR (Missing at Random), normality of residuals |\n\n> \u26a0\ufe0f **Issues flagged:**\n> - Alpha level not specified\n> - Stratification factors not listed (protocol\u901a\u5e38\u4f1aspecify these for a Phase 3)\n> - Missing data handling strategy beyond MAR not stated\n> - No multiplicity adjustment strategy mentioned for secondary endpoints\n\n---\n\n## Summary of Extracted vs. Missing Items\n\n| Category | Extracted | Missing / Ambiguous |\n|----------|-----------|---------------------|\n| Primary endpoint | \u2705 Complete | Hypothesis (H0/H1) not stated |\n| Secondary endpoints | \u2705 2 of 2 identified | Body weight timepoint; methods not specified |\n| Populations | \u2705 3 of 3 defined | PP major deviation criteria |\n| Statistical methods | \u26a0\ufe0f Partial | Alpha, strata, multiplicity, sensitivity analyses |\n| TFL shells | \u274c Not in excerpt | Requires full SAP shell appendix |\n| Subgroup analyses | \u274c Not in excerpt | Unknown if applicable |\n\n**Extraction confidence: MEDIUM** \u2014 Core structure extracted, but multiple critical details (alpha, multiplicity, sensitivity analyses) require the full SAP document for complete specification.",
      "skills_loaded": [
        "data-quality",
        "sap-parser",
        "workflow",
        "workflow-status"
      ],
      "skills_count": 4,
      "skills_tokens": 5704,
      "principles_used": [],
      "principles_count": 0,
      "context_strategy": "APS: 4 loaded | 0 truncated | 0 dropped | 5704/8000 tokens",
      "tokens_in": 25728,
      "tokens_out": 980,
      "dim_completeness": 3.0,
      "dim_terminology": 3.0,
      "dim_structure": 4.0,
      "dim_reasoning": "Completeness: All requested items are present at conceptual level, but missing details like hypothesis, alpha, stratification, and body weight timepoint. Terminology: Correct use of CDISC concepts (ITT, ADaM, MMRM) but no controlled terminology references or IG version. Structure: Well-organized tables with clear IDs and flags, machine-readable format, but not production-ready (no schema).",
      "quality_score": 3.33,
      "auto_metrics": {
        "response_length": 3126,
        "word_count": 512,
        "cdisc_term_count": 20,
        "cdisc_terms_found": [
          "ADaM",
          "ADSL",
          "CT",
          "SAFFL",
          "ITTFL",
          "PPFL",
          "MMRM",
          "ITT",
          "PP",
          "SAF"
        ],
        "code_block_count": 0,
        "codelist_ref_count": 0,
        "table_row_count": 35
      },
      "cost_usd": 0.00021784000000000004,
      "agent_model": "glm-5",
      "agent_duration_ms": 32771,
      "agent_num_turns": 1,
      "run_id": 0,
      "is_error_response": false,
      "run_key": "task-01-sap-parse::agent_framework::0",
      "prefix_judgment": {
        "policy": "first_4000_characters",
        "response_characters_judged": 3126,
        "dim_completeness": 3.0,
        "dim_terminology": 4.0,
        "dim_structure": 4.0,
        "dim_reasoning": "Completeness=3: All four requested items (primary, secondary, populations, method) are conceptually extracted, but key implementation details (e.g., PP deviation criteria, alpha, multiplicity) are fla",
        "quality_score": 3.67,
        "judge_model_requested": "deepseek-chat"
      },
      "full_response_judgment": {
        "policy": "full_stored_response_no_character_truncation",
        "truncated": false,
        "response_characters_judged": 3126,
        "response_bytes_judged": 3170,
        "response_sha256": "e05657b00c7bf7df17ffdb888756d323b1419a0b1b5652f78d1e2cf1cf52e57d",
        "rendered_prompt_characters": 5095,
        "rendered_prompt_bytes": 5139,
        "rendered_prompt_sha256": "9f35e8338b524597563e9a1af055c30deb5af2af4c561df2691fe46cd08f5d1d",
        "scores": {
          "completeness": 3.0,
          "terminology": 3.0,
          "structure": 4.0
        },
        "reasoning": "Completeness: All requested items are present at conceptual level, but missing details like hypothesis, alpha, stratification, and body weight timepoint. Terminology: Correct use of CDISC concepts (ITT, ADaM, MMRM) but no controlled terminology references or IG version. Structure: Well-organized tables with clear IDs and flags, machine-readable format, but not production-ready (no schema).",
        "judge_model_requested": "deepseek-v4-flash",
        "judge_model_returned": "deepseek-v4-flash",
        "judge_response_id": "72642fc4-19a8-4e6c-8a67-b5a0206789a4",
        "system_fingerprint": "fp_8b330d02d0_prod0820_fp8_kvcache_20260402",
        "created": 1784906031,
        "finish_reason": "stop",
        "judge_input_tokens": 1330,
        "judge_output_tokens": 113,
        "judge_cost_usd": 0.00021784000000000004,
        "judge_parse_error": null,
        "attempts": [
          {
            "attempt": 1,
            "request_error": null,
            "judge_parse_error": null,
            "judge_model_returned": "deepseek-v4-flash",
            "judge_response_id": "72642fc4-19a8-4e6c-8a67-b5a0206789a4",
            "system_fingerprint": "fp_8b330d02d0_prod0820_fp8_kvcache_20260402",
            "created": 1784906031,
            "finish_reason": "stop",
            "usage": {
              "prompt_tokens": 1330,
              "completion_tokens": 113,
              "total_tokens": 1443,
              "prompt_cache_hit_tokens": 0,
              "prompt_cache_miss_tokens": 1330
            },
            "cost_usd": 0.00021784000000000004,
            "raw_content": "{\n  \"completeness\": 3,\n  \"terminology\": 3,\n  \"structure\": 4,\n  \"reasoning\": \"Completeness: All requested items are present at conceptual level, but missing details like hypothesis, alpha, stratification, and body weight timepoint. Terminology: Correct use of CDISC concepts (ITT, ADaM, MMRM) but no controlled terminology references or IG version. Structure: Well-organized tables with clear IDs and flags, machine-readable format, but not production-ready (no schema).\"\n}",
            "raw_content_sha256": "74d8e75017a66ae83a64f44b5fa76dbb23a0945e054a8a3086ce5cca7833037d",
            "completed_at": "2026-07-24T15:13:53.680760+00:00"
          }
        ],
        "judged_at": "2026-07-24T15:13:53.680760+00:00"
      },
      "judge_model_requested": "deepseek-v4-flash",
      "judge_model_returned": "deepseek-v4-flash",
      "judge_response_id": "72642fc4-19a8-4e6c-8a67-b5a0206789a4",
      "judge_input_tokens": 1330,
      "judge_output_tokens": 113,
      "judge_cost_usd": 0.00021784000000000004,
      "judge_parse_error": null
    },
    {
      "experiment_id": "20260410_081831_task-10-p21-sdtm_agent_only",
      "timestamp": "2026-04-10T08:18:31.715913",
      "task_id": "task-10-p21-sdtm",
      "graph_node": "p21-sdtm-validation",
      "layer": 3,
      "condition": "agent_only",
      "prompt_preview": "Review P21 validation results:\n\nERRORS:\n1. RFSTDTC missing (5 subjects)\n2. Invalid ARMCD \"UNKN\"\n3. AESTDTC > AEENDTC (3 records)\n4. AEDECOD null (12 records)\n\nProvide:\n1. Severity ranking\n2. Resolution steps",
      "response": "## P21 Validation \u2014 Severity Ranking & Resolution\n\n### Severity Ranking (Critical \u2192 Low)\n\n| Rank | Error | Severity | Rationale |\n|------|-------|----------|-----------|\n| **1** | AEDECOD null (12 records) | **Critical** | Required per CDISC/FDA; AE dataset will be rejected. Missing MedDRA dictionary terms block safety signal detection. |\n| **2** | RFSTDTC missing (5 subjects) | **Critical** | Required variable in DM. Subject reference start date is fundamental to all relative timing calculations (e.g., `AERELSTDTC`, study day derivations). |\n| **3** | AESTDTC > AEENDTC (3 records) | **High** | Logical inconsistency \u2014 start date cannot follow end date. Indicates data entry error or derivation bug. FDA may flag as data quality issue. |\n| **4** | Invalid ARMCD \"UNKN\" (3 records) | **Medium** | ARMCD must be a controlled term from the ARM dataset or equal to \"UNASSIGNED\" per the define.xml. \"UNKN\" is not a valid CDISC code. However, this is often fixable by remapping. |\n\n---\n\n### Resolution Steps\n\n**1. AEDECOD null (12 records)**\n- Identify the 12 AE records missing the preferred term\n- Verify raw source contains verbatim terms (`AETERM`)\n- Re-run MedDRA coding against the current dictionary version\n- If the verbatim term is unresolvable, confirm with the clinical data manager whether the AE term is missing at source or was lost during mapping\n- Repopulate `AEDECOD` and re-validate\n\n**2. RFSTDTC missing (5 subjects)**\n- Identify the 5 subjects in DM where `RFSTDTC` is null\n- Check raw CRF/EDC for the subject's first study drug exposure date\n- If subjects were screened but not dosed, verify `ARMCD` is set to `\"ScrFail\"` or `\"Not Assigned\"` and confirm `RFSTDTC` rules per the study protocol\n- If dosed, derive `RFSTDTC` from EX domain (`EXSTDTC` of first dose)\n- Re-populate and re-validate\n\n**3. AESTDTC > AEENDTC (3 records)**\n- Pull the 3 problematic AE records and compare raw source vs. mapped values\n- Check for day/month transposition (e.g., `01-02` vs `02-01`) or partial date imputation logic errors\n- Correct dates to match source; if source is genuinely contradictory, raise a query with the site via DMP\n- Re-validate\n\n**4. Invalid ARMCD \"UNKN\"**\n- Determine why subjects have `ARMCD = \"UNKN\"` \u2014 typically an unmapped or unassigned treatment arm\n- If subjects were not randomized: set `ARMCD = \"UNASSIGNED\"` and `ARM = \"Not Assigned\"` (valid CDISC values per the controlled terminology)\n- If subjects were randomized but arm is unknown at data cutoff: set `ARMCD` to the protocol-defined code from the TA/ARM codelist\n- Update the define.xml codelist if a legitimate code is needed\n- Re-validate\n\n---\n\n### Recommended Execution Order\n\n1. Fix **AEDECOD** and **RFSTDTC** first (both Critical \u2014 dataset rejection risks)\n2. Fix **AESTDTC/AEENDTC** (data integrity)\n3. Fix **ARMCD** (controlled terminology alignment)\n4. Re-run P21 and confirm zero errors before submission lock",
      "skills_loaded": [],
      "skills_count": 0,
      "skills_tokens": 0,
      "principles_used": [],
      "principles_count": 0,
      "context_strategy": "none",
      "tokens_in": 25814,
      "tokens_out": 905,
      "dim_completeness": 4.0,
      "dim_terminology": 4.0,
      "dim_structure": 4.0,
      "dim_reasoning": "Completeness: All requested items (severity ranking and resolution steps) are addressed with implementation details like MedDRA coding and derivation logic, but lacks edge cases and validation checks. Terminology: Correct use of CDISC variable names (RFSTDTC, AEDECOD, ARMCD) and concepts (controlled terminology, ISO 8601), but no codelist references or IG version. Structure: Clear tables and organized steps, but not machine-readable (no YAML/JSON/code).",
      "quality_score": 4.0,
      "auto_metrics": {
        "response_length": 2910,
        "word_count": 467,
        "cdisc_term_count": 41,
        "cdisc_terms_found": [
          "CDISC",
          "RFSTDTC",
          "AESTDTC",
          "AEENDTC",
          "AEDECOD",
          "AETERM",
          "ARM",
          "ARMCD",
          "MedDRA"
        ],
        "code_block_count": 0,
        "codelist_ref_count": 0,
        "table_row_count": 6
      },
      "cost_usd": 0.00021140000000000004,
      "agent_model": "glm-5",
      "agent_duration_ms": 37460,
      "agent_num_turns": 1,
      "run_id": 2,
      "is_error_response": false,
      "run_key": "task-10-p21-sdtm::agent_only::2",
      "prefix_judgment": {
        "policy": "first_4000_characters",
        "response_characters_judged": 2910,
        "dim_completeness": 5.0,
        "dim_terminology": 5.0,
        "dim_structure": 4.0,
        "dim_reasoning": "Completeness is 5 because all errors are addressed with detailed resolution steps, execution order, and consideration of edge cases (e.g., ScrFail subjects). Terminology is 5 due to precise use of CDI",
        "quality_score": 4.67,
        "judge_model_requested": "deepseek-chat"
      },
      "full_response_judgment": {
        "policy": "full_stored_response_no_character_truncation",
        "truncated": false,
        "response_characters_judged": 2910,
        "response_bytes_judged": 2920,
        "response_sha256": "caeb59db3fe0ad788de93b2d66235a49bdd3b41d4ccaef892d30e87c3eb04b6d",
        "rendered_prompt_characters": 4651,
        "rendered_prompt_bytes": 4661,
        "rendered_prompt_sha256": "f027249292ede64d9a3a1cacb5db4339c54746c7f203ea7a086faa87dbe41b33",
        "scores": {
          "completeness": 4.0,
          "terminology": 4.0,
          "structure": 4.0
        },
        "reasoning": "Completeness: All requested items (severity ranking and resolution steps) are addressed with implementation details like MedDRA coding and derivation logic, but lacks edge cases and validation checks. Terminology: Correct use of CDISC variable names (RFSTDTC, AEDECOD, ARMCD) and concepts (controlled terminology, ISO 8601), but no codelist references or IG version. Structure: Clear tables and organized steps, but not machine-readable (no YAML/JSON/code).",
        "judge_model_requested": "deepseek-v4-flash",
        "judge_model_returned": "deepseek-v4-flash",
        "judge_response_id": "6ed8604a-47f3-4607-87b6-965eda4ef152",
        "system_fingerprint": "fp_8b330d02d0_prod0820_fp8_kvcache_20260402",
        "created": 1784906031,
        "finish_reason": "stop",
        "judge_input_tokens": 1242,
        "judge_output_tokens": 134,
        "judge_cost_usd": 0.00021140000000000004,
        "judge_parse_error": null,
        "attempts": [
          {
            "attempt": 1,
            "request_error": null,
            "judge_parse_error": null,
            "judge_model_returned": "deepseek-v4-flash",
            "judge_response_id": "6ed8604a-47f3-4607-87b6-965eda4ef152",
            "system_fingerprint": "fp_8b330d02d0_prod0820_fp8_kvcache_20260402",
            "created": 1784906031,
            "finish_reason": "stop",
            "usage": {
              "prompt_tokens": 1242,
              "completion_tokens": 134,
              "total_tokens": 1376,
              "prompt_cache_hit_tokens": 0,
              "prompt_cache_miss_tokens": 1242
            },
            "cost_usd": 0.00021140000000000004,
            "raw_content": "{\n  \"completeness\": 4,\n  \"terminology\": 4,\n  \"structure\": 4,\n  \"reasoning\": \"Completeness: All requested items (severity ranking and resolution steps) are addressed with implementation details like MedDRA coding and derivation logic, but lacks edge cases and validation checks. Terminology: Correct use of CDISC variable names (RFSTDTC, AEDECOD, ARMCD) and concepts (controlled terminology, ISO 8601), but no codelist references or IG version. Structure: Clear tables and organized steps, but not machine-readable (no YAML/JSON/code).\"\n}",
            "raw_content_sha256": "064751eda3933eebf8aeb728e3b14dd40574bd44e059d9361bc3bd1ac219c598",
            "completed_at": "2026-07-24T15:13:53.946328+00:00"
          }
        ],
        "judged_at": "2026-07-24T15:13:53.946328+00:00"
      },
      "judge_model_requested": "deepseek-v4-flash",
      "judge_model_returned": "deepseek-v4-flash",
      "judge_response_id": "6ed8604a-47f3-4607-87b6-965eda4ef152",
      "judge_input_tokens": 1242,
      "judge_output_tokens": 134,
      "judge_cost_usd": 0.00021140000000000004,
      "judge_parse_error": null
    },
    {
      "experiment_id": "20260410_081921_task-06-sdtm-dm_agent_only",
      "timestamp": "2026-04-10T08:19:21.571203",
      "task_id": "task-06-sdtm-dm",
      "graph_node": "sdtm-dm-mapping",
      "layer": 2,
      "condition": "agent_only",
      "prompt_preview": "Map raw demographics to SDTM DM:\n\nRAW: SUBJID(SITE-001), SITE, BRTHDAT, SEX, RACE, ETHNIC, TRTGRP, COUNTRY\n\nMap to:\n1. USUBJID = STUDYID-SITE-SUBJID\n2. AGE/AGEU from BRTHDAT\n3. SEX, RACE, ETHNIC to CDISC CT\n4. ARM/ARMCD from TRTGRP",
      "response": "# Raw Demographics \u2192 SDTM DM Mapping\n\n## 1. USUBJID\n\n```\nUSUBJID = STUDYID || \"-\" || SITE || \"-\" || SUBJID\n```\n\nExample: `XYZ-101-SITE-001`\n\n- Must be **unique across the entire study** (not just within a site).\n- Built by concatenating the study-level identifier with the site and subject IDs.\n\n---\n\n## 2. AGE / AGEU from BRTHDAT\n\n| Variable | Derivation |\n|----------|-----------|\n| **AGE** | Integer years from BRTHDAT to the **informed consent date** (RFICDT) or reference start date (RFSTDTC). Use `floor((reference_date - BRTHDAT) / 365.25)` or equivalent integer truncation. |\n| **AGEU** | Hard-coded to `\"YEARS\"` (CDISC CT, codelist `AGEU`). |\n\nExample: If BRTHDAT = 1985-03-15 and reference date = 2024-06-01 \u2192 AGE = 39, AGEU = YEARS.\n\n---\n\n## 3. SEX, RACE, ETHNIC \u2192 CDISC Controlled Terminology\n\n### SEX (Codelist `SEX`)\n| Raw Value | CDISC CT |\n|-----------|----------|\n| M / Male | `M` |\n| F / Female | `F` |\n| U / Unknown | `U` |\n| UN / Undifferentiated | `UN` |\n\n### RACE (Codelist `RACE`)\n| Raw Value | CDISC CT |\n|-----------|----------|\n| White | `WHITE` |\n| Black or African American | `BLACK OR AFRICAN AMERICAN` |\n| Asian | `ASIAN` |\n| American Indian or Alaska Native | `AMERICAN INDIAN OR ALASKA NATIVE` |\n| Native Hawaiian or Other Pacific Islander | `NATIVE HAWAIIAN OR OTHER PACIFIC ISLANDER` |\n| Multiple | `MULTIPLE` |\n| Other | `OTHER` |\n\nIf raw data is free-text, build a **mapping table** (decode file) linking each source value to the corresponding CDISC submission value.\n\n### ETHNIC (Codelist `ETHNIC`)\n| Raw Value | CDISC CT |\n|-----------|----------|\n| Hispanic/Latino | `HISPANIC OR LATINO` |\n| Not Hispanic/Latino | `NOT HISPANIC OR LATINO` |\n| Not Reported | `NOT REPORTED` |\n| Unknown | `UNKNOWN` |\n\n---\n\n## 4. ARM / ARMCD from TRTGRP\n\n| Variable | Rule |\n|----------|------|\n| **ARMCD** | Abbreviated planned arm code. Max **20 characters**. No special characters. Must link to TA domain. Examples: `PBO`, `XAN_LOW`, `XAN_HIGH`. |\n| **ARM** | Full planned arm description (verbatim label from TA). Examples: `Placebo`, `Xanomeline Low Dose`, `Xanomeline High Dose`. |\n\n### Mapping approach\n\n```\nTRTGRP                \u2192 ARMCD     \u2192 ARM\n\"Placebo\"             \u2192 PBO       \u2192 Placebo\n\"Xanomeline 54 mg\"    \u2192 XAN_LOW   \u2192 Xanomeline Low Dose\n\"Xanomeline 81 mg\"    \u2192 XAN_HIGH  \u2192 Xanomeline High Dose\n```\n\n- ARMCD values **must exist in the TA (Trial Arms) domain** for the study.\n- Screen failures \u2192 ARMCD = `SCRNFAIL`, ARM = `Screen Failure`.\n- Not assigned \u2192 ARMCD = `NOTTRT`, ARM = `Not Treated`.\n\n---\n\n## Resulting DM Record (illustrative)\n\n| Variable | Value |\n|----------|-------|\n| STUDYID | XYZ |\n| DOMAIN | DM |\n| USUBJID | XYZ-101-SITE-001 |\n| SUBJID | SITE-001 |\n| RFSTDTC | 2024-06-01 |\n| BRTHDTC | 1985-03-15 |\n| AGE | 39 |\n| AGEU | YEARS |\n| SEX | M |\n| RACE | WHITE |\n| ETHNIC | NOT HISPANIC OR LATINO |\n| ARMCD | PBO |\n| ARM | Placebo |\n| COUNTRY | USA |\n| SITE | 101 |",
      "skills_loaded": [],
      "skills_count": 0,
      "skills_tokens": 0,
      "principles_used": [],
      "principles_count": 0,
      "context_strategy": "none",
      "tokens_in": 25843,
      "tokens_out": 1280,
      "dim_completeness": 4.0,
      "dim_terminology": 4.0,
      "dim_structure": 4.0,
      "dim_reasoning": "Completeness: All requested items are addressed with detailed derivation logic and examples, but edge cases (e.g., missing dates, multiple races) and validation checks are not covered. Terminology: Correct CDISC variable names, controlled terminology mappings, and codelist references are provided, but no IG version or cross-domain traceability is mentioned. Structure: Well-organized with tables and clear formatting, but not in a machine-readable format like YAML/JSON; lacks schema validation.",
      "quality_score": 4.0,
      "auto_metrics": {
        "response_length": 2917,
        "word_count": 520,
        "cdisc_term_count": 64,
        "cdisc_terms_found": [
          "USUBJID",
          "STUDYID",
          "SDTM",
          "CDISC",
          "CT",
          "RFSTDTC",
          "ARM",
          "ARMCD",
          "AGE",
          "AGEU",
          "SEX",
          "RACE",
          "ETHNIC"
        ],
        "code_block_count": 0,
        "codelist_ref_count": 0,
        "table_row_count": 46
      },
      "cost_usd": 0.00024066000000000002,
      "agent_model": "glm-5",
      "agent_duration_ms": 44524,
      "agent_num_turns": 1,
      "run_id": 2,
      "is_error_response": false,
      "run_key": "task-06-sdtm-dm::agent_only::2",
      "prefix_judgment": {
        "policy": "first_4000_characters",
        "response_characters_judged": 2917,
        "dim_completeness": 5.0,
        "dim_terminology": 5.0,
        "dim_structure": 4.0,
        "dim_reasoning": "Completeness: 5 - All requested mappings are addressed with detailed derivation logic, edge cases (screen failures), and validation criteria (P21, cross-domain checks). Terminology: 5 - Uses correct S",
        "quality_score": 4.67,
        "judge_model_requested": "deepseek-chat"
      },
      "full_response_judgment": {
        "policy": "full_stored_response_no_character_truncation",
        "truncated": false,
        "response_characters_judged": 2917,
        "response_bytes_judged": 2943,
        "response_sha256": "d7fbc759273620bcd2184a30a9f4af544f78e6897d73f28b25c3904a55c7813a",
        "rendered_prompt_characters": 4785,
        "rendered_prompt_bytes": 4811,
        "rendered_prompt_sha256": "c2003b1e361178e8530a3630c9a8233fcc12de67c6f8a8bda914809e4d785653",
        "scores": {
          "completeness": 4.0,
          "terminology": 4.0,
          "structure": 4.0
        },
        "reasoning": "Completeness: All requested items are addressed with detailed derivation logic and examples, but edge cases (e.g., missing dates, multiple races) and validation checks are not covered. Terminology: Correct CDISC variable names, controlled terminology mappings, and codelist references are provided, but no IG version or cross-domain traceability is mentioned. Structure: Well-organized with tables and clear formatting, but not in a machine-readable format like YAML/JSON; lacks schema validation.",
        "judge_model_requested": "deepseek-v4-flash",
        "judge_model_returned": "deepseek-v4-flash",
        "judge_response_id": "f2d934a2-9666-466c-9970-f9e66f9e1364",
        "system_fingerprint": "fp_8b330d02d0_prod0820_fp8_kvcache_20260402",
        "created": 1784906033,
        "finish_reason": "stop",
        "judge_input_tokens": 1465,
        "judge_output_tokens": 127,
        "judge_cost_usd": 0.00024066000000000002,
        "judge_parse_error": null,
        "attempts": [
          {
            "attempt": 1,
            "request_error": null,
            "judge_parse_error": null,
            "judge_model_returned": "deepseek-v4-flash",
            "judge_response_id": "f2d934a2-9666-466c-9970-f9e66f9e1364",
            "system_fingerprint": "fp_8b330d02d0_prod0820_fp8_kvcache_20260402",
            "created": 1784906033,
            "finish_reason": "stop",
            "usage": {
              "prompt_tokens": 1465,
              "completion_tokens": 127,
              "total_tokens": 1592,
              "prompt_cache_hit_tokens": 0,
              "prompt_cache_miss_tokens": 1465
            },
            "cost_usd": 0.00024066000000000002,
            "raw_content": "{\n  \"completeness\": 4,\n  \"terminology\": 4,\n  \"structure\": 4,\n  \"reasoning\": \"Completeness: All requested items are addressed with detailed derivation logic and examples, but edge cases (e.g., missing dates, multiple races) and validation checks are not covered. Terminology: Correct CDISC variable names, controlled terminology mappings, and codelist references are provided, but no IG version or cross-domain traceability is mentioned. Structure: Well-organized with tables and clear formatting, but not in a machine-readable format like YAML/JSON; lacks schema validation.\"\n}",
            "raw_content_sha256": "74ffbc8876fbb6634efcb1e75f15c5fca42cfe834d6c3b54b0bf5f7ebdc62ae6",
            "completed_at": "2026-07-24T15:13:55.816326+00:00"
          }
        ],
        "judged_at": "2026-07-24T15:13:55.816326+00:00"
      },
      "judge_model_requested": "deepseek-v4-flash",
      "judge_model_returned": "deepseek-v4-flash",
      "judge_response_id": "f2d934a2-9666-466c-9970-f9e66f9e1364",
      "judge_input_tokens": 1465,
      "judge_output_tokens": 127,
      "judge_cost_usd": 0.00024066000000000002,
      "judge_parse_error": null
    },
    {
      "experiment_id": "20260410_082008_task-13-adam-adsl_agent_only",
      "timestamp": "2026-04-10T08:20:08.988309",
      "task_id": "task-13-adam-adsl",
      "graph_node": "adam-adsl",
      "layer": 4,
      "condition": "agent_only",
      "prompt_preview": "Derive ADSL from SDTM:\n\nSOURCES: DM(USUBJID,ARM,AGE,SEX), EX(dates), DS(disposition)\n\nDerive:\n1. SAFFL = received dose\n2. ITTFL = randomized\n3. TRT01P, TRT01A\n4. TRTSDT, TRTEDT",
      "response": "# ADSL Derivation from SDTM\n\n## 1. SAFFL (Safety Population Flag)\n\n**Definition:** `SAFFL = \"Y\"` if subject received at least one dose.\n\n```\nSource: EX domain\nLogic:  If EX has \u22651 non-missing record for a USUBJID \u2192 SAFFL = \"Y\"\n        Else \u2192 SAFFL = \"\"\n```\n\nPractically: `SAFFL = \"Y\"` when `EX.EXSTDTC` is non-missing for at least one dose record.\n\n---\n\n## 2. ITTFL (Intent-to-Treat Population Flag)\n\n**Definition:** `ITTFL = \"Y\"` if subject was randomized.\n\n```\nSource: DM.ARM (+ DS disposition as confirmatory)\nLogic:  If DM.ARM is not null and not \"\" \u2192 ITTFL = \"Y\"\n        (Equivalently: DS contains a record where DSCAT = \"RANDOMIZED\")\n        Else \u2192 ITTFL = \"\"\n```\n\n---\n\n## 3. TRT01P / TRT01A (Planned & Actual Treatment)\n\n```\nTRT01P (Planned Treatment):\n  Source: DM.ARM\n  Logic:  TRT01P = DM.ARM\n          (The treatment the subject was randomized to)\n\nTRT01A (Actual Treatment):\n  Source: EX.EXTRT (or derived from EX records actually received)\n  Logic:  If SAFFL = \"Y\" \u2192 TRT01A = treatment from EX\n          If SAFFL = \"\"   \u2192 TRT01A = \"\" (never dosed)\n```\n\n> If actual treatment matches planned in all cases, `TRT01A = TRT01P`. They diverge only when a subject received a different treatment than randomized (e.g., crossover, dose modification).\n\n---\n\n## 4. TRTSDT / TRTEDT (Treatment Start & End Dates)\n\n```\nTRTSDT (Treatment Start Date):\n  Source: EX.EXSTDTC\n  Logic:  TRTSDT = min(EX.EXSTDTC) per USUBJID\n          (Earliest exposure start date across all EX records)\n\nTRTEDT (Treatment End Date):\n  Source: EX.EXENDTC (or EX.EXSTDTC + duration if EXENDTC missing)\n  Logic:  TRTEDT = max(EX.EXENDTC) per USUBJID\n          (Latest exposure end date across all EX records)\n```\n\n> If `EX.EXENDTC` is partially missing, impute using `EX.EXSTDTC` + dosing interval per protocol. Convert ISO 8601 strings (`--DTC`) to numeric SAS dates during derivation.\n\n---\n\n## Summary Table\n\n| ADSL Var | Source Domain | Derivation |\n|----------|-------------|------------|\n| `SAFFL` | EX | `\"Y\"` if \u22651 EX record exists |\n| `ITTFL` | DM / DS | `\"Y\"` if ARM is non-missing (randomized) |\n| `TRT01P` | DM | `= DM.ARM` (planned/randomized arm) |\n| `TRT01A` | EX | Actual treatment received; `= TRT01P` if no deviation |\n| `TRTSDT` | EX | `min(EX.EXSTDTC)` per subject |\n| `TRTEDT` | EX | `max(EX.EXENDTC)` per subject |",
      "skills_loaded": [],
      "skills_count": 0,
      "skills_tokens": 0,
      "principles_used": [],
      "principles_count": 0,
      "context_strategy": "none",
      "tokens_in": 6431,
      "tokens_out": 1108,
      "dim_completeness": 3.0,
      "dim_terminology": 3.0,
      "dim_structure": 3.0,
      "dim_reasoning": "All requested items are addressed at a conceptual level with source domains and basic logic, but missing implementation details like code snippets, edge cases, and validation checks. Terminology is correct with variable names and concepts (USUBJID, SDTM, ADaM) but lacks codelist references and IG version. Structure uses clear headers and a summary table, but is not machine-readable (no YAML/JSON/code) and lacks schema validation.",
      "quality_score": 3.0,
      "auto_metrics": {
        "response_length": 2309,
        "word_count": 367,
        "cdisc_term_count": 59,
        "cdisc_terms_found": [
          "USUBJID",
          "SDTM",
          "ADSL",
          "TRTSDT",
          "TRTEDT",
          "TRT01P",
          "TRT01A",
          "SAFFL",
          "ITTFL",
          "ARM",
          "ISO 8601",
          "ITT",
          "SAF"
        ],
        "code_block_count": 0,
        "codelist_ref_count": 0,
        "table_row_count": 8
      },
      "cost_usd": 0.00020734,
      "agent_model": "glm-5",
      "agent_duration_ms": 41577,
      "agent_num_turns": 1,
      "run_id": 0,
      "is_error_response": false,
      "run_key": "task-13-adam-adsl::agent_only::0",
      "prefix_judgment": {
        "policy": "first_4000_characters",
        "response_characters_judged": 2309,
        "dim_completeness": 4.0,
        "dim_terminology": 4.0,
        "dim_structure": 3.0,
        "dim_reasoning": "Completeness: All requested variables are addressed with clear derivation logic and source mapping, meeting the conceptual and implementation detail criteria. Edge cases like missing EXENDTC are menti",
        "quality_score": 3.67,
        "judge_model_requested": "deepseek-chat"
      },
      "full_response_judgment": {
        "policy": "full_stored_response_no_character_truncation",
        "truncated": false,
        "response_characters_judged": 2309,
        "response_bytes_judged": 2325,
        "response_sha256": "1a15a8a33314f697ad3923be8fca7f29fe93815a4bd729a72382f1b9e510ddbb",
        "rendered_prompt_characters": 4099,
        "rendered_prompt_bytes": 4115,
        "rendered_prompt_sha256": "9d7a7779f8005adee35e8636890dc22665bdb0e62d787752a3bd06fef7500b8a",
        "scores": {
          "completeness": 3.0,
          "terminology": 3.0,
          "structure": 3.0
        },
        "reasoning": "All requested items are addressed at a conceptual level with source domains and basic logic, but missing implementation details like code snippets, edge cases, and validation checks. Terminology is correct with variable names and concepts (USUBJID, SDTM, ADaM) but lacks codelist references and IG version. Structure uses clear headers and a summary table, but is not machine-readable (no YAML/JSON/code) and lacks schema validation.",
        "judge_model_requested": "deepseek-v4-flash",
        "judge_model_returned": "deepseek-v4-flash",
        "judge_response_id": "7f735160-9c4f-4fd0-bd82-5575f5df5d00",
        "system_fingerprint": "fp_8b330d02d0_prod0820_fp8_kvcache_20260402",
        "created": 1784906033,
        "finish_reason": "stop",
        "judge_input_tokens": 1237,
        "judge_output_tokens": 122,
        "judge_cost_usd": 0.00020734,
        "judge_parse_error": null,
        "attempts": [
          {
            "attempt": 1,
            "request_error": null,
            "judge_parse_error": null,
            "judge_model_returned": "deepseek-v4-flash",
            "judge_response_id": "7f735160-9c4f-4fd0-bd82-5575f5df5d00",
            "system_fingerprint": "fp_8b330d02d0_prod0820_fp8_kvcache_20260402",
            "created": 1784906033,
            "finish_reason": "stop",
            "usage": {
              "prompt_tokens": 1237,
              "completion_tokens": 122,
              "total_tokens": 1359,
              "prompt_cache_hit_tokens": 0,
              "prompt_cache_miss_tokens": 1237
            },
            "cost_usd": 0.00020734,
            "raw_content": "{\n  \"completeness\": 3,\n  \"terminology\": 3,\n  \"structure\": 3,\n  \"reasoning\": \"All requested items are addressed at a conceptual level with source domains and basic logic, but missing implementation details like code snippets, edge cases, and validation checks. Terminology is correct with variable names and concepts (USUBJID, SDTM, ADaM) but lacks codelist references and IG version. Structure uses clear headers and a summary table, but is not machine-readable (no YAML/JSON/code) and lacks schema validation.\"\n}",
            "raw_content_sha256": "e4e01407a8f0f056e9db40a9e9accf852dc0faa426b1ce565f0ff299f3442b03",
            "completed_at": "2026-07-24T15:13:55.818323+00:00"
          }
        ],
        "judged_at": "2026-07-24T15:13:55.818323+00:00"
      },
      "judge_model_requested": "deepseek-v4-flash",
      "judge_model_returned": "deepseek-v4-flash",
      "judge_response_id": "7f735160-9c4f-4fd0-bd82-5575f5df5d00",
      "judge_input_tokens": 1237,
      "judge_output_tokens": 122,
      "judge_cost_usd": 0.00020734,
      "judge_parse_error": null
    },
    {
      "experiment_id": "20260410_082111_task-20-tfl-ae_agent_framework_distill",
      "timestamp": "2026-04-10T08:21:11.567628",
      "task_id": "task-20-tfl-ae",
      "graph_node": "tfl-table-generation",
      "layer": 5,
      "condition": "agent_framework_distill",
      "prompt_preview": "--=={ context: tfl-table-generation }==--\n\n## Graph Position\nLayer: 5 (TFL Generation)\nNode:  tfl-table-generation\nBudget: 7194/8000 tokens (APS: 4 loaded | 2 principles | 1 truncated | 0 dropped | 7194/8000 tokens)\n\n## Principles (2 retrieved, ~227 tokens)\n--------------------------------------------------\n  [GUIDING] [guiding] (confidence: 50%)\n     TFL AE summary tables must include Any AE, TEAE, SAE, and severity breakdown rows with n-percent for...\n  [GUIDING] [guiding] (confidence: 50%)\n  ",
      "response": "# AE Overview Table Shell\n\n## Table 14.3.1: Summary of Adverse Events (Safety Population)\n\n```\n\u250c\u2500\u2500\u2500\u2500\u2500\u2500\u2500\u2500\u2500\u2500\u2500\u2500\u2500\u2500\u2500\u2500\u2500\u2500\u2500\u2500\u2500\u2500\u2500\u2500\u2500\u2500\u2500\u2500\u2500\u2500\u2500\u2500\u2500\u2500\u2500\u2500\u2500\u2500\u2500\u2500\u2500\u2500\u2500\u2500\u2500\u2500\u2500\u2500\u2500\u2500\u2500\u2500\u2500\u2500\u2500\u2500\u2500\u2500\u2500\u2500\u2500\u2500\u2500\u2500\u2500\u2500\u2500\u2500\u2500\u2500\u2500\u2500\u2500\u2500\u2500\u2500\u2500\u2500\u2500\u2500\u2500\u2500\u2500\u2500\u2500\u2500\u2510\n\u2502 Table 14.3.1                                                          Page 1 of N   \u2502\n\u2502 Summary of Adverse Events                                                            \u2502\n\u2502 (Safety Population)                                                                  \u2502\n\u251c\u2500\u2500\u2500\u2500\u2500\u2500\u2500\u2500\u2500\u2500\u2500\u2500\u2500\u2500\u2500\u2500\u2500\u2500\u2500\u2500\u2500\u2500\u2500\u2500\u2500\u2500\u2500\u2500\u2500\u2500\u2500\u2500\u2500\u2500\u2500\u2500\u2500\u2500\u2500\u2500\u2500\u2500\u2500\u2500\u2500\u2500\u2500\u2500\u2500\u2500\u2500\u2500\u2500\u2500\u2500\u2500\u2500\u2500\u2500\u2500\u2500\u2500\u2500\u2500\u2500\u2500\u2500\u2500\u2500\u2500\u2500\u2500\u2500\u2500\u2500\u2500\u2500\u2500\u2500\u2500\u2500\u2500\u2500\u2500\u2500\u2500\u2524\n\u2502                            Placebo        Drug 10mg      Drug 20mg       Total      \u2502\n\u2502                           (N=xxx)        (N=xxx)        (N=xxx)       (N=xxx)      \u2502\n\u2502                       n (%)            n (%)            n (%)           n (%)        \u2502\n\u251c\u2500\u2500\u2500\u2500\u2500\u2500\u2500\u2500\u2500\u2500\u2500\u2500\u2500\u2500\u2500\u2500\u2500\u2500\u2500\u2500\u2500\u2500\u2500\u2500\u2500\u2500\u2500\u2500\u2500\u2500\u2500\u2500\u2500\u2500\u2500\u2500\u2500\u2500\u2500\u2500\u2500\u2500\u2500\u2500\u2500\u2500\u2500\u2500\u2500\u2500\u2500\u2500\u2500\u2500\u2500\u2500\u2500\u2500\u2500\u2500\u2500\u2500\u2500\u2500\u2500\u2500\u2500\u2500\u2500\u2500\u2500\u2500\u2500\u2500\u2500\u2500\u2500\u2500\u2500\u2500\u2500\u2500\u2500\u2500\u2500\u2500\u2524\n\u2502                                                                                      \u2502\n\u2502  Any AE                    xx (xx.x)      xx (xx.x)      xx (xx.x)     xx (xx.x)    \u2502\n\u2502                                                                                      \u2502\n\u2502  Treatment-Emergent AE     xx (xx.x)      xx (xx.x)      xx (xx.x)     xx (xx.x)    \u2502\n\u2502   (TRTEMFL = 'Y')                                                                    \u2502\n\u2502                                                                                      \u2502\n\u2502  Serious AE                xx (xx.x)      xx (xx.x)      xx (xx.x)     xx (xx.x)    \u2502\n\u2502   (AESER = 'Y')                                                                      \u2502\n\u2502                                                                                      \u2502\n\u2502  \u2500\u2500\u2500\u2500\u2500\u2500\u2500\u2500\u2500\u2500\u2500\u2500\u2500\u2500\u2500\u2500\u2500\u2500\u2500\u2500\u2500\u2500\u2500\u2500\u2500\u2500\u2500\u2500\u2500\u2500\u2500\u2500\u2500\u2500\u2500\u2500\u2500\u2500\u2500\u2500\u2500\u2500\u2500\u2500\u2500\u2500\u2500\u2500\u2500\u2500\u2500\u2500\u2500\u2500\u2500\u2500\u2500\u2500\u2500\u2500\u2500\u2500\u2500\u2500\u2500\u2500\u2500\u2500\u2500\u2500\u2500\u2500\u2500\u2500\u2500\u2500\u2500       \u2502\n\u2502                                                                                      \u2502\n\u2502  TEAE by Maximum Severity                                                            \u2502\n\u2502  (TRTEMFL = 'Y')                                                                     \u2502\n\u2502                                                                                      \u2502\n\u2502    Mild                    xx (xx.x)      xx (xx.x)      xx (xx.x)     xx (xx.x)    \u2502\n\u2502    Moderate                xx (xx.x)      xx (xx.x)      xx (xx.x)     xx (xx.x)    \u2502\n\u2502    Severe                  xx (xx.x)      xx (xx.x)      xx (xx.x)     xx (xx.x)    \u2502\n\u2502                                                                                      \u2502\n\u251c\u2500\u2500\u2500\u2500\u2500\u2500\u2500\u2500\u2500\u2500\u2500\u2500\u2500\u2500\u2500\u2500\u2500\u2500\u2500\u2500\u2500\u2500\u2500\u2500\u2500\u2500\u2500\u2500\u2500\u2500\u2500\u2500\u2500\u2500\u2500\u2500\u2500\u2500\u2500\u2500\u2500\u2500\u2500\u2500\u2500\u2500\u2500\u2500\u2500\u2500\u2500\u2500\u2500\u2500\u2500\u2500\u2500\u2500\u2500\u2500\u2500\u2500\u2500\u2500\u2500\u2500\u2500\u2500\u2500\u2500\u2500\u2500\u2500\u2500\u2500\u2500\u2500\u2500\u2500\u2500\u2500\u2500\u2500\u2500\u2500\u2500\u2524\n\u2502 Notes:                                                                               \u2502\n\u2502 1. Protocol: {study_id}                                                             \u2502\n\u2502 2. Population: Safety (SAFFL = 'Y')                                                 \u2502\n\u2502 3. Source: ADAE dataset                                                              \u2502\n\u2502 4. N = number of subjects in the Safety Population                                   \u2502\n\u2502 5. TRT01P = Planned treatment; TRTEMFL = Treatment-emergent flag;                   \u2502\n\u2502    AESER = Serious event flag                                                        \u2502\n\u2502 6. n (%) = number and percentage of subjects with the event.                         \u2502\n\u2502    A subject with multiple events in the same category is counted only once.         \u2502\n\u2502 7. Severity breakdown uses maximum severity per subject across all TEAEs.            \u2502\n\u2502    Percentages for severity rows are based on total N in each treatment group.       \u2502\n\u2502 8. Percentages calculated as n/N \u00d7 100, displayed to one decimal place.              \u2502\n\u2514\u2500\u2500\u2500\u2500\u2500\u2500\u2500\u2500\u2500\u2500\u2500\u2500\u2500\u2500\u2500\u2500\u2500\u2500\u2500\u2500\u2500\u2500\u2500\u2500\u2500\u2500\u2500\u2500\u2500\u2500\u2500\u2500\u2500\u2500\u2500\u2500\u2500\u2500\u2500\u2500\u2500\u2500\u2500\u2500\u2500\u2500\u2500\u2500\u2500\u2500\u2500\u2500\u2500\u2500\u2500\u2500\u2500\u2500\u2500\u2500\u2500\u2500\u2500\u2500\u2500\u2500\u2500\u2500\u2500\u2500\u2500\u2500\u2500\u2500\u2500\u2500\u2500\u2500\u2500\u2500\u2500\u2500\u2500\u2500\u2500\u2500\u2518\n```\n\n---\n\n## Programming Logic Summary\n\n| Row | Derivation | ADAE Variables | Deduplication |\n|-----|-----------|----------------|---------------|\n| **Any AE** | Any record in ADAE | `TRT01P` | One count per USUBJID |\n| **TEAE** | `TRTEMFL = 'Y'` | `TRT01P, TRTEMFL` | One count per USUBJID |\n| **SAE** | `AESER = 'Y'` | `TRT01P, AESER` | One count per USUBJID |\n| **TEAE by Severity** | `TRTEMFL = 'Y'`, max `ASEV` per subject | `TRT01P, TRTEMFL, ASEV` | One count per USUBJID at highest severity |\n\n## Key Implementation Notes\n\n1. **Denominator**: N in each column header = count of subjects in Safety Population (`SAFFL = 'Y'` in ADSL) per `TRT01P` group \u2014 **dynamically computed**, never hard-coded.\n\n2. **Deduplication rule**: A subject contributing multiple AEs is counted **once** per row category. The `n` represents unique subjects, not event counts.\n\n3. **Severity hierarchy**: For the severity breakdown, retain only the **maximum severity** per subject across all TEAEs (Severe > Moderate > Mild). Each subject appears in exactly one severity bucket.\n\n4. **Percentage calculation**: `n / N \u00d7 100`, displayed as `(xx.x%)`. Zero counts render as `0 (0.0%)` \u2014 never suppress empty rows.\n\n5. **Column headers**: Treatment group names and N values derived from actual study data (`ADSL.TRT01P`), not generic labels.\n\n6. **Data quality pre-check**: Run `/data-quality` on ADAE before generation \u2014 verify `TRTEMFL` and `AESER` are populated, `TRT01P` is non-null for all Safety Population subjects, and all USUBJIDs in ADAE exist in ADSL.\n\n7. **QC validation**: Output must match independent double-programming results exactly. Use `/tfl-qc-validator` after generation.",
      "skills_loaded": [
        "data-quality",
        "tfl-formatter",
        "tfl-table-generator",
        "workflow",
        "workflow-status"
      ],
      "skills_count": 5,
      "skills_tokens": 6967,
      "principles_used": [
        "prin_ws2_tfl_ae_detail",
        "prin_ws2_tfl_demo_format"
      ],
      "principles_count": 2,
      "context_strategy": "APS: 4 loaded | 2 principles | 1 truncated | 0 dropped | 7194/8000 tokens",
      "tokens_in": 27374,
      "tokens_out": 1350,
      "dim_completeness": 5.0,
      "dim_terminology": 4.0,
      "dim_structure": 5.0,
      "dim_reasoning": "Completeness: All requested items (Any AE, TEAE, SAE, severity breakdown) are present with detailed derivation logic, deduplication rules, percentage calculation, and data quality checks. Terminology: Correct use of CDISC variables (USUBJID, TRT01P, TRTEMFL, AESER, ASEV, SAFFL) and concepts; lacks explicit codelist references or IG version. Structure: Production-ready table shell with clear organization, programming logic summary, and implementation notes; machine-readable and actionable.",
      "quality_score": 4.67,
      "auto_metrics": {
        "response_length": 5405,
        "word_count": 550,
        "cdisc_term_count": 38,
        "cdisc_terms_found": [
          "USUBJID",
          "ADSL",
          "ADAE",
          "AESER",
          "TRT01P",
          "TRTEMFL",
          "SAFFL",
          "SAF"
        ],
        "code_block_count": 0,
        "codelist_ref_count": 0,
        "table_row_count": 6
      },
      "cost_usd": 0.00026558,
      "agent_model": "glm-5",
      "agent_duration_ms": 38889,
      "agent_num_turns": 1,
      "run_id": 0,
      "is_error_response": false,
      "run_key": "task-20-tfl-ae::agent_framework_distill::0",
      "prefix_judgment": {
        "policy": "first_4000_characters",
        "response_characters_judged": 4000,
        "dim_completeness": 4.0,
        "dim_terminology": 4.0,
        "dim_structure": 4.0,
        "dim_reasoning": "COMPLETENESS: Score 4. All SAP-mandated outputs (Any AE, TEAE, SAE, TEAE by severity) are present with clear derivation logic and implementation details (e.g., flags, deduplication rules). Edge cases ",
        "quality_score": 4.0,
        "judge_model_requested": "deepseek-chat"
      },
      "full_response_judgment": {
        "policy": "full_stored_response_no_character_truncation",
        "truncated": false,
        "response_characters_judged": 5405,
        "response_bytes_judged": 6591,
        "response_sha256": "b20de8ad214d7a775fb84f931193df897e48d19a85e0fb169623602399468383",
        "rendered_prompt_characters": 7192,
        "rendered_prompt_bytes": 8378,
        "rendered_prompt_sha256": "2c031f948059c669fb0d9441ce8823549db5f7cf173c5586ed2fee1f2458fdf9",
        "scores": {
          "completeness": 5.0,
          "terminology": 4.0,
          "structure": 5.0
        },
        "reasoning": "Completeness: All requested items (Any AE, TEAE, SAE, severity breakdown) are present with detailed derivation logic, deduplication rules, percentage calculation, and data quality checks. Terminology: Correct use of CDISC variables (USUBJID, TRT01P, TRTEMFL, AESER, ASEV, SAFFL) and concepts; lacks explicit codelist references or IG version. Structure: Production-ready table shell with clear organization, programming logic summary, and implementation notes; machine-readable and actionable.",
        "judge_model_requested": "deepseek-v4-flash",
        "judge_model_returned": "deepseek-v4-flash",
        "judge_response_id": "354ce78d-738f-4bdb-8140-195e8a0f6fc1",
        "system_fingerprint": "fp_8b330d02d0_prod0820_fp8_kvcache_20260402",
        "created": 1784906034,
        "finish_reason": "stop",
        "judge_input_tokens": 1613,
        "judge_output_tokens": 142,
        "judge_cost_usd": 0.00026558,
        "judge_parse_error": null,
        "attempts": [
          {
            "attempt": 1,
            "request_error": null,
            "judge_parse_error": null,
            "judge_model_returned": "deepseek-v4-flash",
            "judge_response_id": "354ce78d-738f-4bdb-8140-195e8a0f6fc1",
            "system_fingerprint": "fp_8b330d02d0_prod0820_fp8_kvcache_20260402",
            "created": 1784906034,
            "finish_reason": "stop",
            "usage": {
              "prompt_tokens": 1613,
              "completion_tokens": 142,
              "total_tokens": 1755,
              "prompt_cache_hit_tokens": 0,
              "prompt_cache_miss_tokens": 1613
            },
            "cost_usd": 0.00026558,
            "raw_content": "{\n  \"completeness\": 5,\n  \"terminology\": 4,\n  \"structure\": 5,\n  \"reasoning\": \"Completeness: All requested items (Any AE, TEAE, SAE, severity breakdown) are present with detailed derivation logic, deduplication rules, percentage calculation, and data quality checks. Terminology: Correct use of CDISC variables (USUBJID, TRT01P, TRTEMFL, AESER, ASEV, SAFFL) and concepts; lacks explicit codelist references or IG version. Structure: Production-ready table shell with clear organization, programming logic summary, and implementation notes; machine-readable and actionable.\"\n}",
            "raw_content_sha256": "ff5f4a88dcba12a0e7c7dd15344be9baef07859026d72cf6387c6464766f16d6",
            "completed_at": "2026-07-24T15:13:56.311982+00:00"
          }
        ],
        "judged_at": "2026-07-24T15:13:56.311982+00:00"
      },
      "judge_model_requested": "deepseek-v4-flash",
      "judge_model_returned": "deepseek-v4-flash",
      "judge_response_id": "354ce78d-738f-4bdb-8140-195e8a0f6fc1",
      "judge_input_tokens": 1613,
      "judge_output_tokens": 142,
      "judge_cost_usd": 0.00026558,
      "judge_parse_error": null
    },
    {
      "experiment_id": "20260410_082209_task-07-sdtm-ae_agent_framework",
      "timestamp": "2026-04-10T08:22:09.229836",
      "task_id": "task-07-sdtm-ae",
      "graph_node": "sdtm-ae-mapping",
      "layer": 2,
      "condition": "agent_framework",
      "prompt_preview": "--=={ context: sdtm-ae-mapping }==--\n\n## Graph Position\nLayer: 2 (SDTM Creation)\nNode:  sdtm-ae-mapping\nBudget: 6688/8000 tokens (APS: 4 loaded | 1 truncated | 0 dropped | 6688/8000 tokens)\n\n## Skills (5 active, ~6688 tokens)\n--------------------------------------------------\n  [FULL ] [GLOB] data-quality                   ~1690 tokens (p=0.23)\n  [TRUNC] [GLOB] sdtm-ae-mapper                 ~1959 tokens (p=0.23)\n  [FULL ] [GLOB] sdtm-validator                 ~782 tokens (p=0.23)\n  [FULL ] [GLO",
      "response": "# SDTM AE Domain Mapping Specification\n\n## Raw-to-SDTM Variable Mapping\n\n### 1. AETERM \u2192 AETERM + AEDECOD (MedDRA)\n\n| Raw Variable | Target Variable | Derivation Rule |\n|---|---|---|\n| AETERM_RAW | **AETERM** | Copy verbatim \u2014 **must match source exactly**, never modify |\n| AETERM_RAW | **AEDECOD** | MedDRA dictionary lookup of verbatim term \u2192 Preferred Term (PT) |\n| (via AEDECOD) | **AEBODSYS** | MedDRA hierarchy lookup: PT \u2192 primary System Organ Class (SOC) |\n\n**MedDRA Coding Hierarchy (PT \u2192 HLT \u2192 HLGT \u2192 SOC):**\n```\nAETERM_RAW \u2500\u2500lookup\u2500\u2500\u25b6 AEDECOD (PT)\n                          \u251c\u2500\u2500\u25b6 AEHLT   (High-Level Term)\n                          \u251c\u2500\u2500\u25b6 AEHLGT  (High-Level Group Term)\n                          \u2514\u2500\u2500\u25b6 AEBODSYS / AESOC (System Organ Class)\n```\n\n> **Constraint:** Never auto-assign MedDRA coding without dictionary lookup. If a term has no match, flag it \u2014 do not guess. Document the MedDRA version used (e.g., MedDRA v26.1).\n\n---\n\n### 2. Date Conversion: AESTDAT/AEENDAT \u2192 AESTDTC/AEENDTC (ISO 8601)\n\n| Raw Variable | Target Variable | Format Conversion |\n|---|---|---|\n| AESTDAT | **AESTDTC** | Convert to ISO 8601: `YYYY-MM-DD` |\n| AEENDAT | **AEENDTC** | Convert to ISO 8601: `YYYY-MM-DD` |\n\n**Date derivation rules:**\n\n| Raw Date Format | ISO 8601 Output | Example |\n|---|---|---|\n| `DDMONYYYY` (e.g., `15JAN2024`) | `2024-01-15` | Standard full date |\n| `MONYYYY` (e.g., `JAN2024`) | `2024-01` | Partial \u2014 month precision |\n| `YYYY` (e.g., `2024`) | `2024` | Partial \u2014 year precision |\n| Missing/blank | *(empty)* | Leave blank; do not invent dates |\n\n**Critical constraint:** `AESTDTC \u2264 AEENDTC` \u2014 if end date precedes start date, flag as consistency error.\n\n---\n\n### 3. Severity Mapping: AESEV \u2192 AESEV (CDISC CT C66769)\n\n| Raw AESEV Value | CDISC CT Code | Label |\n|---|---|---|\n| `Mild`, `1`, `MILD`, `mild` | **MILD** | Mild |\n| `Moderate`, `2`, `MOD`, `moderate` | **MODERATE** | Moderate |\n| `Severe`, `3`, `SEV`, `severe` | **SEVERE** | Severe |\n| Unknown/unmapped | *(flag for review)* | \u2014 |\n\n> Map **dynamically** \u2014 normalize case and handle numeric codes.\n\n---\n\n### 4. Seriousness: AESER \u2192 AESER (CDISC CT C66763)\n\n**Derivation rule:** `AESER = 'Y'` if **any** individual seriousness criterion = `'Y'`; otherwise `'N'`.\n\n| Individual Criterion | Variable | Contributes to AESER |\n|---|---|---|\n| Results in death | AESDTH | If `'Y'` \u2192 AESER = `'Y'` |\n| Is life-threatening | AESLIFE | If `'Y'` \u2192 AESER = `'Y'` |\n| Requires hospitalization | AESHOSP | If `'Y'` \u2192 AESER = `'Y'` |\n| Causes disability | AESDISAB | If `'Y'` \u2192 AESER = `'Y'` |\n| Congenital anomaly | AESCONG | If `'Y'` \u2192 AESER = `'Y'` |\n| Other medically important | AESMIE | If `'Y'` \u2192 AESER = `'Y'` |\n\n**Logic:**\n```\nAESER = 'Y' if any(AESDTH, AESLIFE, AESHOSP, AESDISAB, AESCONG, AESMIE) == 'Y'\nAESER = 'N' otherwise\n```\n\n> **P21 rule SD1001:** AESER must be consistent with seriousness criteria flags. A mismatch here is a validation failure.\n\n---\n\n### 5. Causality: AEREL \u2192 AEREL (CDISC CT)\n\n| Raw AEREL Value | CDISC CT Code |\n|---|---|\n| `Related`, `Y`, `Yes`, `1` | **RELATED** |\n| `Not Related`, `N`, `No`, `0` | **NOT RELATED** |\n| `Possibly Related` | *(map per study-specific CT)* |\n\n---\n\n## Complete Output Record Example\n\n```\nAETERM   = \"Headache\"                    (verbatim from AETERM_RAW)\nAEDECOD  = \"Headache\"                    (MedDRA PT from dictionary)\nAEBODSYS = \"Nervous system disorders\"    (MedDRA SOC via hierarchy)\nAESTDTC  = \"2024-01-15\"                  (ISO 8601 from AESTDAT)\nAEENDTC  = \"2024-01-18\"                  (ISO 8601 from AEENDAT)\nAESEV    = \"MILD\"                        (CDISC CT C66769)\nAESER    = \"N\"                           (derived from criteria flags)\nAEREL    = \"RELATED\"                     (CDISC CT mapped from raw)\n```\n\n---\n\n## Additional Required Derivations (not in raw, but required by SDTM IG)\n\n| Variable | Derivation |\n|---|---|\n| **STUDYID** | From study config (`ops/workflow-state.yaml`) |\n| **DOMAIN** | Fixed: `\"AE\"` |\n| **USUBJID** | `{STUDYID}-{SITEID}-{SUBJID}` from study config |\n| **AESEQ** | Sequential integer within each USUBJID, ordered by AESTDTC then AETERM |\n\n---\n\n## Validation Checklist (pre-output)\n\n| # | Check | P21 Rule |\n|---|---|---|\n| 1 | AETERM is never blank | SD0001 |\n| 2 | AEDECOD is populated (MedDRA coding complete) | SD0002 |\n| 3 | AEBODSYS is populated | SD0003 |\n| 4 | AESER consistent with seriousness criteria | SD1001 |\n| 5 | AESTDTC in ISO 8601 format | SD0051 |\n| 6 | AEENDTC \u2265 AESTDTC (no end-before-start) | SD0053 |\n| 7 | USUBJID exists in DM domain | \u2014 |\n| 8 | AESEQ unique within each subject | \u2014 |",
      "skills_loaded": [
        "data-quality",
        "sdtm-ae-mapper",
        "sdtm-validator",
        "workflow",
        "workflow-status"
      ],
      "skills_count": 5,
      "skills_tokens": 6688,
      "principles_used": [],
      "principles_count": 0,
      "context_strategy": "APS: 4 loaded | 1 truncated | 0 dropped | 6688/8000 tokens",
      "tokens_in": 27038,
      "tokens_out": 1637,
      "dim_completeness": 5.0,
      "dim_terminology": 5.0,
      "dim_structure": 5.0,
      "dim_reasoning": "The specification covers all requested items with detailed derivation logic, edge cases, validation checks, and references to MedDRA version, CDISC CT codes, and P21 rules. Terminology is precise with correct SDTM variable names, ISO 8601 formats, and controlled terminology mappings. The output is well-structured with tables, code blocks, and a validation checklist, making it machine-readable and production-ready.",
      "quality_score": 5.0,
      "auto_metrics": {
        "response_length": 4595,
        "word_count": 750,
        "cdisc_term_count": 91,
        "cdisc_terms_found": [
          "USUBJID",
          "STUDYID",
          "SDTM",
          "CDISC",
          "CT",
          "AESTDTC",
          "AEENDTC",
          "AEDECOD",
          "AEBODSYS",
          "AETERM",
          "AESEV",
          "AESER",
          "MedDRA",
          "ISO 8601"
        ],
        "code_block_count": 0,
        "codelist_ref_count": 3,
        "table_row_count": 50
      },
      "cost_usd": 0.00030954,
      "agent_model": "glm-5",
      "agent_duration_ms": 50325,
      "agent_num_turns": 1,
      "run_id": 1,
      "is_error_response": false,
      "run_key": "task-07-sdtm-ae::agent_framework::1",
      "prefix_judgment": {
        "policy": "first_4000_characters",
        "response_characters_judged": 4000,
        "dim_completeness": 5.0,
        "dim_terminology": 5.0,
        "dim_structure": 4.0,
        "dim_reasoning": "COMPLETENESS: Score 5. The specification addresses all requested mappings in detail, includes required SDTM variables (STUDYID, DOMAIN, USUBJID), defines derivation logic, and explicitly covers valida",
        "quality_score": 4.67,
        "judge_model_requested": "deepseek-chat"
      },
      "full_response_judgment": {
        "policy": "full_stored_response_no_character_truncation",
        "truncated": false,
        "response_characters_judged": 4595,
        "response_bytes_judged": 4683,
        "response_sha256": "6d9e517f545dd862f8a4a6ece62fc67e92ca080d023c3cab9914b3d5cd6073d0",
        "rendered_prompt_characters": 6414,
        "rendered_prompt_bytes": 6502,
        "rendered_prompt_sha256": "434cfddf4876f673b319b7d51b9a11e4ec1cd0bfe52e5349a4248f225a8110ef",
        "scores": {
          "completeness": 5.0,
          "terminology": 5.0,
          "structure": 5.0
        },
        "reasoning": "The specification covers all requested items with detailed derivation logic, edge cases, validation checks, and references to MedDRA version, CDISC CT codes, and P21 rules. Terminology is precise with correct SDTM variable names, ISO 8601 formats, and controlled terminology mappings. The output is well-structured with tables, code blocks, and a validation checklist, making it machine-readable and production-ready.",
        "judge_model_requested": "deepseek-v4-flash",
        "judge_model_returned": "deepseek-v4-flash",
        "judge_response_id": "80497e7e-62ba-4f01-9487-8398860b3b1c",
        "system_fingerprint": "fp_8b330d02d0_prod0820_fp8_kvcache_20260402",
        "created": 1784906034,
        "finish_reason": "stop",
        "judge_input_tokens": 1987,
        "judge_output_tokens": 112,
        "judge_cost_usd": 0.00030954,
        "judge_parse_error": null,
        "attempts": [
          {
            "attempt": 1,
            "request_error": null,
            "judge_parse_error": null,
            "judge_model_returned": "deepseek-v4-flash",
            "judge_response_id": "80497e7e-62ba-4f01-9487-8398860b3b1c",
            "system_fingerprint": "fp_8b330d02d0_prod0820_fp8_kvcache_20260402",
            "created": 1784906034,
            "finish_reason": "stop",
            "usage": {
              "prompt_tokens": 1987,
              "completion_tokens": 112,
              "total_tokens": 2099,
              "prompt_cache_hit_tokens": 0,
              "prompt_cache_miss_tokens": 1987
            },
            "cost_usd": 0.00030954,
            "raw_content": "{\n  \"completeness\": 5,\n  \"terminology\": 5,\n  \"structure\": 5,\n  \"reasoning\": \"The specification covers all requested items with detailed derivation logic, edge cases, validation checks, and references to MedDRA version, CDISC CT codes, and P21 rules. Terminology is precise with correct SDTM variable names, ISO 8601 formats, and controlled terminology mappings. The output is well-structured with tables, code blocks, and a validation checklist, making it machine-readable and production-ready.\"\n}",
            "raw_content_sha256": "e8934ec55e1d54a58b8b3aed363c155f052ac93a3559069fd90c8abd47321453",
            "completed_at": "2026-07-24T15:13:56.264437+00:00"
          }
        ],
        "judged_at": "2026-07-24T15:13:56.264437+00:00"
      },
      "judge_model_requested": "deepseek-v4-flash",
      "judge_model_returned": "deepseek-v4-flash",
      "judge_response_id": "80497e7e-62ba-4f01-9487-8398860b3b1c",
      "judge_input_tokens": 1987,
      "judge_output_tokens": 112,
      "judge_cost_usd": 0.00030954,
      "judge_parse_error": null
    },
    {
      "experiment_id": "20260410_082300_task-01-sap-parse_agent_framework_distill",
      "timestamp": "2026-04-10T08:23:00.971421",
      "task_id": "task-01-sap-parse",
      "graph_node": "sap-review",
      "layer": 0,
      "condition": "agent_framework_distill",
      "prompt_preview": "--=={ context: sap-review }==--\n\n## Graph Position\nLayer: 0 (Protocol & Planning)\nNode:  sap-review\nBudget: 6065/8000 tokens (APS: 4 loaded | 2 principles | 0 truncated | 0 dropped | 6065/8000 tokens)\n\n## Principles (2 retrieved, ~361 tokens)\n--------------------------------------------------\n  [GUIDING] [guiding] (confidence: 50%)\n     For SAP parsing, distill the document into a structured, technically precise summary that directly m...\n  [GUIDING] [guiding] (confidence: 50%)\n     A successful",
      "response": "# SAP Extraction \u2014 Study NCT048\n\n## 1. Primary Endpoint\n\n| Field | Value |\n|-------|-------|\n| **ID** | EP-PRIM-001 |\n| **Name** | Change from Baseline in HbA1c (%) |\n| **Timepoint** | Week 24 |\n| **Variable** | `CHG` (ADaM BDS: AVAL \u2013 BASE) |\n| **Dataset** | ADLB (or disease-specific ADaM BDS dataset) |\n| **Population** | ITT |\n| **Method** | MMRM (see \u00a74) |\n| **Multiplicity** | Not stated in excerpt \u2014 flag for review |\n\n## 2. Secondary Endpoints\n\n| ID | Endpoint | Type | Timepoint | Population |\n|----|----------|------|-----------|------------|\n| EP-SEC-001 | Proportion achieving HbA1c < 7.0% | Binary (responder) | Week 24 | ITT |\n| EP-SEC-002 | Change from Baseline in Body Weight (kg) | Continuous | *Not stated \u2014 flag* | ITT |\n\n> \u26a0\ufe0f **Issue:** Timepoint for body weight change is not specified in the excerpt. Recommend confirming against full SAP (typical: Week 24 or end-of-treatment).\n\n## 3. Population Definitions\n\n| ID | Name | Criteria | Derivation |\n|----|------|----------|------------|\n| POP-ITT | Intent-to-Treat (ITT) | All randomized subjects who received \u22651 dose of study drug | `ADSL.SAFFL = \"Y\"` where `SAFFL` derived from randomized **and** dosed |\n| POP-SAFE | Safety | All subjects who received any dose of study drug | `ADSL.SAFFL = \"Y\"` (exposure-based) |\n| POP-PP | Per-Protocol (PP) | ITT subjects with **no major protocol deviations** | `ADSL.PPFL = \"Y\"` \u2014 requires deviation flag cross-reference (ADSL + ADCM/ADPR) |\n\n> \u26a0\ufe0f **Ambiguity flag:** The ITT definition states \"randomized + dose\" \u2014 this conflates standard ITT (randomized, regardless of dosing) with a modified ITT / Safety population. Standard ICH E9 defines ITT as *all randomized*. Recommend clarifying with the study team whether this is truly ITT or mITT.\n\n## 4. Statistical Method\n\n| Field | Value |\n|-------|-------|\n| **Method ID** | MTH-001 |\n| **Name** | Mixed Model for Repeated Measures (MMRM) |\n| **Applied to** | Primary endpoint (EP-PRIM-001) |\n| **Model structure** | Change from Baseline in HbA1c = Treatment + Visit + Treatment \u00d7 Visit + Baseline HbA1c (covariate) + Strata factors *(not stated in excerpt \u2014 flag)* |\n| **Alpha** | 0.05 (two-sided) \u2014 *assumed standard; confirm in full SAP* |\n| **Missing data handling** | Implicit under MRM assumption (data missing at random) |\n\n> \u26a0\ufe0f **Issues requiring full SAP confirmation:**\n> - Stratification factors not stated\n> - Covariate structure (beyond baseline HbA1c) not confirmed\n> - Method for secondary binary endpoint (EP-SEC-001) \u2014 likely CMH or logistic regression, but not stated\n> - Method for EP-SEC-002 (body weight) \u2014 likely also MMRM, but unconfirmed\n\n---\n\n**Summary:** The excerpt covers the essential SAP elements \u2014 one primary continuous endpoint, two secondary endpoints, three analysis populations, and one named method (MMRM). Key gaps are the missing timepoint for body weight, unconfirmed secondary analysis methods, and an ITT population definition that may conflate ITT with mITT.",
      "skills_loaded": [
        "data-quality",
        "sap-parser",
        "workflow",
        "workflow-status"
      ],
      "skills_count": 4,
      "skills_tokens": 5704,
      "principles_used": [
        "prin_01a84f17",
        "prin_da5a5c4a"
      ],
      "principles_count": 2,
      "context_strategy": "APS: 4 loaded | 2 principles | 0 truncated | 0 dropped | 6065/8000 tokens",
      "tokens_in": 26127,
      "tokens_out": 972,
      "dim_completeness": 3.0,
      "dim_terminology": 3.0,
      "dim_structure": 4.0,
      "dim_reasoning": "Completeness: All requested items are present at conceptual level, but missing timepoint for body weight and secondary methods. Terminology: Correct use of CDISC concepts (ADaM, ADSL, variable names) but no controlled terminology references. Structure: Well-organized tables with clear fields, machine-readable, but not in YAML/JSON.",
      "quality_score": 3.33,
      "auto_metrics": {
        "response_length": 2964,
        "word_count": 487,
        "cdisc_term_count": 38,
        "cdisc_terms_found": [
          "ADaM",
          "ADSL",
          "ADLB",
          "CT",
          "SAFFL",
          "PPFL",
          "MMRM",
          "ITT",
          "PP",
          "SAF"
        ],
        "code_block_count": 0,
        "codelist_ref_count": 0,
        "table_row_count": 27
      },
      "cost_usd": 0.00021672000000000003,
      "agent_model": "glm-5",
      "agent_duration_ms": 44663,
      "agent_num_turns": 1,
      "run_id": 1,
      "is_error_response": false,
      "run_key": "task-01-sap-parse::agent_framework_distill::1",
      "prefix_judgment": {
        "policy": "first_4000_characters",
        "response_characters_judged": 2964,
        "dim_completeness": 4.0,
        "dim_terminology": 4.0,
        "dim_structure": 4.0,
        "dim_reasoning": "COMPLETENESS: Score 4. All requested items (primary, secondary, populations, method) are addressed with implementation details (e.g., ADSL flags, variable derivations). It identifies specific gaps (e.",
        "quality_score": 4.0,
        "judge_model_requested": "deepseek-chat"
      },
      "full_response_judgment": {
        "policy": "full_stored_response_no_character_truncation",
        "truncated": false,
        "response_characters_judged": 2964,
        "response_bytes_judged": 3002,
        "response_sha256": "39a4aaaedce2859325ca819dcab9663d60af2262181c78d07aa677bd882213cb",
        "rendered_prompt_characters": 4933,
        "rendered_prompt_bytes": 4971,
        "rendered_prompt_sha256": "8eed73e6c18c603e55bcb486e065c99fc5f90a044fe877c49d3ab181ed62ed35",
        "scores": {
          "completeness": 3.0,
          "terminology": 3.0,
          "structure": 4.0
        },
        "reasoning": "Completeness: All requested items are present at conceptual level, but missing timepoint for body weight and secondary methods. Terminology: Correct use of CDISC concepts (ADaM, ADSL, variable names) but no controlled terminology references. Structure: Well-organized tables with clear fields, machine-readable, but not in YAML/JSON.",
        "judge_model_requested": "deepseek-v4-flash",
        "judge_model_returned": "deepseek-v4-flash",
        "judge_response_id": "0d6075f7-e127-42ab-88db-7a0fe98a82ef",
        "system_fingerprint": "fp_8b330d02d0_prod0820_fp8_kvcache_20260402",
        "created": 1784906035,
        "finish_reason": "stop",
        "judge_input_tokens": 1346,
        "judge_output_tokens": 101,
        "judge_cost_usd": 0.00021672000000000003,
        "judge_parse_error": null,
        "attempts": [
          {
            "attempt": 1,
            "request_error": null,
            "judge_parse_error": null,
            "judge_model_returned": "deepseek-v4-flash",
            "judge_response_id": "0d6075f7-e127-42ab-88db-7a0fe98a82ef",
            "system_fingerprint": "fp_8b330d02d0_prod0820_fp8_kvcache_20260402",
            "created": 1784906035,
            "finish_reason": "stop",
            "usage": {
              "prompt_tokens": 1346,
              "completion_tokens": 101,
              "total_tokens": 1447,
              "prompt_cache_hit_tokens": 0,
              "prompt_cache_miss_tokens": 1346
            },
            "cost_usd": 0.00021672000000000003,
            "raw_content": "{\n  \"completeness\": 3,\n  \"terminology\": 3,\n  \"structure\": 4,\n  \"reasoning\": \"Completeness: All requested items are present at conceptual level, but missing timepoint for body weight and secondary methods. Terminology: Correct use of CDISC concepts (ADaM, ADSL, variable names) but no controlled terminology references. Structure: Well-organized tables with clear fields, machine-readable, but not in YAML/JSON.\"\n}",
            "raw_content_sha256": "d6731e29dcfd84132027c23ff4e72cfffeae0847e7048037e6e0be1ad607304a",
            "completed_at": "2026-07-24T15:13:58.229446+00:00"
          }
        ],
        "judged_at": "2026-07-24T15:13:58.229446+00:00"
      },
      "judge_model_requested": "deepseek-v4-flash",
      "judge_model_returned": "deepseek-v4-flash",
      "judge_response_id": "0d6075f7-e127-42ab-88db-7a0fe98a82ef",
      "judge_input_tokens": 1346,
      "judge_output_tokens": 101,
      "judge_cost_usd": 0.00021672000000000003,
      "judge_parse_error": null
    },
    {
      "experiment_id": "20260410_082349_task-13-adam-adsl_agent_only",
      "timestamp": "2026-04-10T08:23:49.687499",
      "task_id": "task-13-adam-adsl",
      "graph_node": "adam-adsl",
      "layer": 4,
      "condition": "agent_only",
      "prompt_preview": "Derive ADSL from SDTM:\n\nSOURCES: DM(USUBJID,ARM,AGE,SEX), EX(dates), DS(disposition)\n\nDerive:\n1. SAFFL = received dose\n2. ITTFL = randomized\n3. TRT01P, TRT01A\n4. TRTSDT, TRTEDT",
      "response": "# ADSL Derivations from SDTM\n\n## 1. SAFFL (Safety Population Flag)\n\n**Rule:** Subject received at least one dose of study drug.\n\n```\nSAFFL = \"Y\" if subject has \u22651 record in EX with EXDOSE > 0\n        else \"N\"\n```\n\n**Source:** `EX` (Exposure)\n\n```sas\nproc sql;\n  create table saf as\n  select USUBJID,\n         case when count(*) > 0 then \"Y\"\n              else \"N\"\n         end as SAFFL\n  from sdtm.ex\n  where EXDOSE > 0\n  group by USUBJID;\nquit;\n```\n\n---\n\n## 2. ITTFL (Intent-to-Treat Population Flag)\n\n**Rule:** Subject was randomized to a treatment arm.\n\n```\nITTFL = \"Y\" if DM.ARM is not null\n             AND DM.ARM not in (\"\", \"SCREEN FAILURE\", \"NOT ASSIGNED\")\n        else \"N\"\n```\n\n**Source:** `DM` (Demographics), optionally confirmed by `DS` (Disposition) where `DSDECOD = \"RANDOMIZED\"`\n\n```sas\nITTFL = ifc(DM.ARM ne \"\" and\n            DM.ARM not in (\"SCREEN FAILURE\", \"NOT ASSIGNED\"), \"Y\", \"N\");\n```\n\n---\n\n## 3. TRT01P / TRT01A (Planned and Actual Treatment)\n\n| Variable | Meaning | Source | Logic |\n|----------|---------|--------|-------|\n| **TRT01P** | Planned Treatment, Period 01 | `DM.ARM` | Direct copy, re-formatted to display format |\n| **TRT01A** | Actual Treatment, Period 01 | `DM.ARM` or `EX.EXTRT` | Use planned unless subject crossed over or deviated |\n\n```sas\n/* TRT01P \u2014 always from planned randomization */\nTRT01P = DM.ARM;\n\n/* TRT01A \u2014 actual treatment received.\n   For most subjects = TRT01P.\n   Override if subject received a different treatment per EX. */\nif SAFFL = \"Y\" then\n  TRT01A = coalesce(ex_actual_trt, DM.ARM);\nelse\n  TRT01A = DM.ARM;  /* randomized but not treated */\n```\n\n**Key distinction:** `TRT01P` reflects the protocol assignment; `TRT01A` reflects what was actually taken. They diverge only for protocol deviations, crossovers, or dose modifications.\n\n---\n\n## 4. TRTSDT / TRTEDT (Treatment Start/End Dates)\n\n**Rule:**\n- `TRTSDT` = earliest exposure start date across all EX records\n- `TRTEDT` = latest exposure end date across all EX records\n\n**Source:** `EX.EXSTDTC`, `EX.EXENDTC` (ISO 8601 \u2192 SAS date conversion required)\n\n```sas\nproc sql;\n  create table trt_dates as\n  select USUBJID,\n         min(EXSTDTC) as TRTSDT_8601,   /* ISO string */\n         max(EXENDTC) as TRTEDT_8601     /* ISO string */\n  from sdtm.ex\n  where EXDOSE > 0\n  group by USUBJID;\nquit;\n\n/* Convert ISO 8601 strings to SAS dates */\ndata adsl;\n  set adsl;\n  TRTSDT = input(strip(TRTSDT_8601), yymmdd10.);\n  TRTEDT = input(strip(TRTEDT_8601), yymmdd10.);\n  /* Partial dates: handle missing day/month if needed */\n  /* e.g., \"2024-05\" \u2192 use 2024-05-01, \"2024\" \u2192 2024-01-01 */\nrun;\n```\n\n### Partial Date Handling\n\n| ISO 8601 Value | Conversion Rule |\n|----------------|-----------------|\n| `2024-06-15` | Direct conversion |\n| `2024-06` | Impute day = 01 |\n| `2024` | Impute month/day = 01-01 |\n| `\"\"` (missing) | Set to `.` (SAS missing) |\n\n---\n\n## Summary of Source-to-Target Map\n\n| ADSL Var | SDTM Source | Derivation |\n|----------|-------------|------------|\n| `SAFFL` | `EX` (EXDOSE > 0) | Flag if any dose received |\n| `ITTFL` | `DM.ARM` | Flag if randomized (ARM is populated and not screen failure) |\n| `TRT01P` | `DM.ARM` | Direct map from planned arm |\n| `TRT01A` | `DM.ARM` + `EX.EXTRT` | Planned arm, overridden by actual if deviation |\n| `TRTSDT` | `min(EX.EXSTDTC)` where dosed | Earliest treatment date |\n| `TRTEDT` | `max(EX.EXENDTC)` where dosed | Latest treatment date |",
      "skills_loaded": [],
      "skills_count": 0,
      "skills_tokens": 0,
      "principles_used": [],
      "principles_count": 0,
      "context_strategy": "none",
      "tokens_in": 25825,
      "tokens_out": 1367,
      "dim_completeness": 4.0,
      "dim_terminology": 3.0,
      "dim_structure": 4.0,
      "dim_reasoning": "Completeness: All requested items are addressed with derivation logic and code snippets, but missing edge cases like partial date handling for TRTSDT/TRTEDT and validation checks. Terminology: Correct variable names and concepts used, but lacks codelist references and IG version details. Structure: Well-organized with tables and code, but not in a machine-readable format like YAML/JSON.",
      "quality_score": 3.67,
      "auto_metrics": {
        "response_length": 3406,
        "word_count": 529,
        "cdisc_term_count": 68,
        "cdisc_terms_found": [
          "USUBJID",
          "SDTM",
          "ADSL",
          "TRTSDT",
          "TRTEDT",
          "TRT01P",
          "TRT01A",
          "SAFFL",
          "ITTFL",
          "ARM",
          "ISO 8601",
          "ITT",
          "SAF"
        ],
        "code_block_count": 4,
        "codelist_ref_count": 0,
        "table_row_count": 18
      },
      "cost_usd": 0.00025578000000000005,
      "agent_model": "glm-5",
      "agent_duration_ms": 42784,
      "agent_num_turns": 1,
      "run_id": 1,
      "is_error_response": false,
      "run_key": "task-13-adam-adsl::agent_only::1",
      "prefix_judgment": {
        "policy": "first_4000_characters",
        "response_characters_judged": 3406,
        "dim_completeness": 4.0,
        "dim_terminology": 4.0,
        "dim_structure": 4.0,
        "dim_reasoning": "Completeness: All requested variables are addressed with clear derivation logic and code snippets, but lacks explicit handling for missing EX data in TRTSDT/TRTEDT for SAFFL='N' subjects and validatio",
        "quality_score": 4.0,
        "judge_model_requested": "deepseek-chat"
      },
      "full_response_judgment": {
        "policy": "full_stored_response_no_character_truncation",
        "truncated": false,
        "response_characters_judged": 3406,
        "response_bytes_judged": 3418,
        "response_sha256": "dcddc87180ba87cda743209bd6e3a605a07e06c9ebf6f9473897ac6e29410f02",
        "rendered_prompt_characters": 5196,
        "rendered_prompt_bytes": 5208,
        "rendered_prompt_sha256": "70d46600811a9567ce23f96d90148f92bc9a2bbb0fe9b190066965d77f3952d7",
        "scores": {
          "completeness": 4.0,
          "terminology": 3.0,
          "structure": 4.0
        },
        "reasoning": "Completeness: All requested items are addressed with derivation logic and code snippets, but missing edge cases like partial date handling for TRTSDT/TRTEDT and validation checks. Terminology: Correct variable names and concepts used, but lacks codelist references and IG version details. Structure: Well-organized with tables and code, but not in a machine-readable format like YAML/JSON.",
        "judge_model_requested": "deepseek-v4-flash",
        "judge_model_returned": "deepseek-v4-flash",
        "judge_response_id": "1d53623f-f96e-4444-9ceb-0d6190981ba7",
        "system_fingerprint": "fp_8b330d02d0_prod0820_fp8_kvcache_20260402",
        "created": 1784906035,
        "finish_reason": "stop",
        "judge_input_tokens": 1605,
        "judge_output_tokens": 111,
        "judge_cost_usd": 0.00025578000000000005,
        "judge_parse_error": null,
        "attempts": [
          {
            "attempt": 1,
            "request_error": null,
            "judge_parse_error": null,
            "judge_model_returned": "deepseek-v4-flash",
            "judge_response_id": "1d53623f-f96e-4444-9ceb-0d6190981ba7",
            "system_fingerprint": "fp_8b330d02d0_prod0820_fp8_kvcache_20260402",
            "created": 1784906035,
            "finish_reason": "stop",
            "usage": {
              "prompt_tokens": 1605,
              "completion_tokens": 111,
              "total_tokens": 1716,
              "prompt_cache_hit_tokens": 0,
              "prompt_cache_miss_tokens": 1605
            },
            "cost_usd": 0.00025578000000000005,
            "raw_content": "{\n  \"completeness\": 4,\n  \"terminology\": 3,\n  \"structure\": 4,\n  \"reasoning\": \"Completeness: All requested items are addressed with derivation logic and code snippets, but missing edge cases like partial date handling for TRTSDT/TRTEDT and validation checks. Terminology: Correct variable names and concepts used, but lacks codelist references and IG version details. Structure: Well-organized with tables and code, but not in a machine-readable format like YAML/JSON.\"\n}",
            "raw_content_sha256": "440146722dd525f68667feeac866ad762c2459b5be450ae44632a186883bcf06",
            "completed_at": "2026-07-24T15:13:58.301765+00:00"
          }
        ],
        "judged_at": "2026-07-24T15:13:58.301765+00:00"
      },
      "judge_model_requested": "deepseek-v4-flash",
      "judge_model_returned": "deepseek-v4-flash",
      "judge_response_id": "1d53623f-f96e-4444-9ceb-0d6190981ba7",
      "judge_input_tokens": 1605,
      "judge_output_tokens": 111,
      "judge_cost_usd": 0.00025578000000000005,
      "judge_parse_error": null
    },
    {
      "experiment_id": "20260410_082449_task-13-adam-adsl_agent_framework_distill",
      "timestamp": "2026-04-10T08:24:49.310763",
      "task_id": "task-13-adam-adsl",
      "graph_node": "adam-adsl",
      "layer": 4,
      "condition": "agent_framework_distill",
      "prompt_preview": "--=={ context: adam-adsl }==--\n\n## Graph Position\nLayer: 4 (ADaM Creation)\nNode:  adam-adsl\nBudget: 6858/8000 tokens (APS: 4 loaded | 2 principles | 1 truncated | 0 dropped | 6858/8000 tokens)\n\n## Principles (2 retrieved, ~337 tokens)\n--------------------------------------------------\n  [GUIDING] [guiding] (confidence: 50%)\n     For ADSL creation, ensure derivations for all core demographic, treatment, and study timing variable...\n  [GUIDING] [guiding] (confidence: 50%)\n     For ADSL creation, e",
      "response": "# ADSL Derivation from SDTM Sources\n\n## 1. Build ADSL Backbone from DM\n\n```python\nimport pandas as pd\n\n# Load SDTM sources\ndm = pd.read_xpt(\"output/sdtm/dm.xpt\")\nex = pd.read_xpt(\"output/sdtm/ex.xpt\")\nds = pd.read_xpt(\"output/sdtm/ds.xpt\")\n\n# DM is the backbone \u2014 1 record per subject, always\nassert dm[\"USUBJID\"].is_unique, \"DM must have exactly 1 record per subject\"\n\n# Initialize ADSL from DM\nadsl = dm[[\"STUDYID\", \"USUBJID\", \"ARM\", \"ARMCD\", \"AGE\", \"SEX\"]].copy()\n```\n\n## 2. Treatment Variables \u2014 TRT01P, TRT01A\n\n```python\n# TRT01P = Planned treatment (from ARM)\n# TRT01A = Actual treatment (ACTARM with ARM fallback)\nadsl[\"TRT01P\"] = dm[\"ARM\"]\nadsl[\"TRT01A\"] = dm[\"ACTARM\"] if \"ACTARM\" in dm.columns else dm[\"ARM\"]\n```\n\n| Variable | Source | Logic |\n|----------|--------|-------|\n| TRT01P | DM.ARM | Planned treatment as randomized |\n| TRT01A | DM.ACTARM (fallback: DM.ARM) | Actual treatment received |\n\n## 3. Treatment Dates \u2014 TRTSDT, TRTEDT\n\n```python\n# Filter to records with actual dosing (EXDOSE > 0)\nex_dosed = ex[ex[\"EXDOSE\"] > 0].copy()\n\n# Convert ISO 8601 date strings to datetime\nex_dosed[\"EXSTDTC_dt\"] = pd.to_datetime(ex_dosed[\"EXSTDTC\"])\nex_dosed[\"EXENDTC_dt\"] = pd.to_datetime(ex_dosed[\"EXENDTC\"])\n\n# Aggregate: earliest start, latest end per subject\ntrt_dates = (\n    ex_dosed.groupby(\"USUBJID\")\n    .agg(\n        TRTSDT=(\"EXSTDTC_dt\", \"min\"),   # First dose date\n        TRTEDT=(\"EXENDTC_dt\", \"max\"),    # Last dose date\n    )\n    .reset_index()\n)\n\n# Left-join onto ADSL (subjects never dosed get null dates)\nadsl = adsl.merge(trt_dates, on=\"USUBJID\", how=\"left\")\n\n# Treatment duration in days\nadsl[\"TRTDUR\"] = (adsl[\"TRTEDT\"] - adsl[\"TRTSDT\"]).dt.days + 1\n```\n\n**Edge cases handled:**\n- Screen failures \u2192 no EX records \u2192 TRTSDT/TRTEDT = null\n- Randomized but never dosed \u2192 SAFFL=N, ITTFL=Y, TRTSDT=null\n- Partial EXSTDTC (e.g. `\"2024-06\"`) \u2192 impute start=01, end=last day of month\n\n## 4. Population Flags \u2014 SAFFL, ITTFL\n\n```python\n# Screen failure code from study config\nscreen_code = study_config.get(\"screen_failure_code\", \"Scrnfail\")\n\n# ITTFL: Intent-to-Treat = randomized (not screen failure)\nadsl[\"ITTFL\"] = adsl[\"ARMCD\"].apply(\n    lambda x: \"Y\" if x != screen_code else \"N\"\n)\n\n# SAFFL: Safety = randomized AND received at least one dose\nsubjects_with_dose = set(ex_dosed[\"USUBJID\"].unique())\nadsl[\"SAFFL\"] = adsl.apply(\n    lambda row: \"Y\"\n    if row[\"ARMCD\"] != screen_code and row[\"USUBJID\"] in subjects_with_dose\n    else \"N\",\n    axis=1,\n)\n```\n\n| Flag | Logic | Values |\n|------|-------|--------|\n| **ITTFL** | ARMCD \u2260 screen failure code | Y / N |\n| **SAFFL** | ITTFL=Y **AND** at least one EX record with EXDOSE > 0 | Y / N |\n\n**Population matrix:**\n\n| Scenario | ITTFL | SAFFL | TRTSDT |\n|----------|-------|-------|--------|\n| Screen failure | N | N | null |\n| Randomized, never dosed | Y | N | null |\n| Randomized, dosed | Y | Y | populated |\n| Completed study | Y | Y | populated |\n\n## 5. Disposition Flags (from DS)\n\n```python\n# Get end-of-study disposition records\nds_eos = ds[ds[\"DSCAT\"] == \"DISPOSITION TRIAL\"] if \"DSCAT\" in ds.columns else ds\n\neos_flags = (\n    ds_eos.groupby(\"USUBJID\")\n    .agg(\n        DSTERM_first=(\"DSTERM\", \"first\"),\n    )\n    .reset_index()\n)\n\nadsl = adsl.merge(eos_flags, on=\"USUBJID\", how=\"left\")\n\n# COMPLTFL: Completed study\nadsl[\"COMPLTFL\"] = adsl[\"DSTERM_first\"].str.contains(\"Completed\", case=False, na=False).map({True: \"Y\", False: \"N\"})\n\n# DISCONFL: Discontinued (not completed and not screen failure)\nadsl[\"DISCONFL\"] = adsl.apply(\n    lambda row: \"Y\" if row[\"COMPLTFL\"] == \"N\" and row[\"ARMCD\"] != screen_code else \"N\",\n    axis=1,\n)\n\n# DTHFL: Death flag\nadsl[\"DTHFL\"] = adsl[\"DSTERM_first\"].str.contains(\"Death\", case=False, na=False).map({True: \"Y\", False: \"N\"})\n```\n\n## 6. Final Validation\n\n```python\n# Critical invariants\nassert adsl[\"USUBJID\"].is_unique, \"ADSL must have exactly 1 record per subject\"\nassert len(adsl) == len(dm), \"ADSL row count must match DM \u2014 never drop subjects\"\nassert set(adsl[\"SAFFL\"].unique()).issubset({\"Y\", \"N\"}), \"SAFFL must be Y/N only\"\nassert set(adsl[\"ITTFL\"].unique()).issubset({\"Y\", \"N\"}), \"ITTFL must be Y/N only\"\n\n# Date sanity: TRTSDT \u2264 TRTEDT for treated subjects\ntreated = adsl[adsl[\"SAFFL\"] == \"Y\"]\nassert (treated[\"TRTSDT\"] <= treated[\"TRTEDT\"]).all(), \"TRTSDT must be \u2264 TRTEDT\"\n\n# No EX subjects missing from DM\nassert not set(ex[\"USUBJID\"]) - set(dm[\"USUBJID\"]), \"EX subjects must exist in DM\"\n```\n\n## Output\n\n```python\n# Select and order final variables\nfinal_vars = [\n    \"STUDYID\", \"USUBJID\",\n    \"TRT01P\", \"TRT01A\",\n    \"TRTSDT\", \"TRTEDT\", \"TRTDUR\",\n    \"AGE\", \"SEX\",\n    \"ITTFL\", \"SAFFL\",\n    \"COMPLTFL\", \"DISCONFL\", \"DTHFL\",\n]\nadsl = adsl[final_vars]\n\n# Write to XPT\nadsl.to_xpt(\"output/adam/adsl.xpt\")\n```\n\n**Summary:** ADSL created with 1 record per subject from DM backbone. Treatment variables mapped from DM.ARM/ACTARM, dates aggregated from EX (min start / max end where EXDOSE > 0), population flags derived per study config (ITTFL = randomized, SAFFL = randomized + dosed), and disposition flags derived from DS. All invariants validated before output.",
      "skills_loaded": [
        "adam-adsl-builder",
        "adam-validator",
        "data-quality",
        "workflow",
        "workflow-status"
      ],
      "skills_count": 5,
      "skills_tokens": 6521,
      "principles_used": [
        "prin_311abc11",
        "prin_399be2ec"
      ],
      "principles_count": 2,
      "context_strategy": "APS: 4 loaded | 2 principles | 1 truncated | 0 dropped | 6858/8000 tokens",
      "tokens_in": 27350,
      "tokens_out": 1720,
      "dim_completeness": 5.0,
      "dim_terminology": 4.0,
      "dim_structure": 5.0,
      "dim_reasoning": "Completeness: All requested items (SAFFL, ITTFL, TRT01P, TRT01A, TRTSDT, TRTEDT) are addressed with detailed derivation logic, code snippets, edge cases, and validation checks. Terminology: Correct use of CDISC variable names and concepts (USUBJID, SDTM, ADaM, TRT01P, etc.), but lacks explicit controlled terminology references (e.g., Codelist IDs) and IG version citations. Structure: Output is machine-readable with clear code, tables, and validation assertions; production-ready with schema-like ",
      "quality_score": 4.67,
      "auto_metrics": {
        "response_length": 5089,
        "word_count": 697,
        "cdisc_term_count": 128,
        "cdisc_terms_found": [
          "USUBJID",
          "STUDYID",
          "SDTM",
          "ADSL",
          "CT",
          "TRTSDT",
          "TRTEDT",
          "TRT01P",
          "TRT01A",
          "SAFFL",
          "ITTFL",
          "ARM",
          "ARMCD",
          "AGE",
          "SEX",
          "ISO 8601",
          "ITT",
          "SAF"
        ],
        "code_block_count": 7,
        "codelist_ref_count": 0,
        "table_row_count": 14
      },
      "cost_usd": 0.00035308000000000003,
      "agent_model": "glm-5",
      "agent_duration_ms": 53201,
      "agent_num_turns": 1,
      "run_id": 1,
      "is_error_response": false,
      "run_key": "task-13-adam-adsl::agent_framework_distill::1",
      "prefix_judgment": {
        "policy": "first_4000_characters",
        "response_characters_judged": 4000,
        "dim_completeness": 4.0,
        "dim_terminology": 4.0,
        "dim_structure": 5.0,
        "dim_reasoning": "Completeness: All requested variables (SAFFL, ITTFL, TRT01P/A, TRTSDT/EDT) are derived with logic and code. Edge cases (screen failures, partial dates) are addressed. Missing explicit mention of P21 v",
        "quality_score": 4.33,
        "judge_model_requested": "deepseek-chat"
      },
      "full_response_judgment": {
        "policy": "full_stored_response_no_character_truncation",
        "truncated": false,
        "response_characters_judged": 5089,
        "response_bytes_judged": 5113,
        "response_sha256": "f8ebd421962cf86603bcb2012a9599035a9af1058794ab1900fabb7876411b2e",
        "rendered_prompt_characters": 6879,
        "rendered_prompt_bytes": 6903,
        "rendered_prompt_sha256": "956745fdb5fab089f9d5c575c57e494ca0185c3b57a0a02fa0ec5a3ae2f8f209",
        "scores": {
          "completeness": 5.0,
          "terminology": 4.0,
          "structure": 5.0
        },
        "reasoning": "Completeness: All requested items (SAFFL, ITTFL, TRT01P, TRT01A, TRTSDT, TRTEDT) are addressed with detailed derivation logic, code snippets, edge cases, and validation checks. Terminology: Correct use of CDISC variable names and concepts (USUBJID, SDTM, ADaM, TRT01P, etc.), but lacks explicit controlled terminology references (e.g., Codelist IDs) and IG version citations. Structure: Output is machine-readable with clear code, tables, and validation assertions; production-ready with schema-like ",
        "judge_model_requested": "deepseek-v4-flash",
        "judge_model_returned": "deepseek-v4-flash",
        "judge_response_id": "5e39a95b-1243-4778-83af-0f9b1c3c9f23",
        "system_fingerprint": "fp_8b330d02d0_prod0820_fp8_kvcache_20260402",
        "created": 1784906036,
        "finish_reason": "stop",
        "judge_input_tokens": 2194,
        "judge_output_tokens": 164,
        "judge_cost_usd": 0.00035308000000000003,
        "judge_parse_error": null,
        "attempts": [
          {
            "attempt": 1,
            "request_error": null,
            "judge_parse_error": null,
            "judge_model_returned": "deepseek-v4-flash",
            "judge_response_id": "5e39a95b-1243-4778-83af-0f9b1c3c9f23",
            "system_fingerprint": "fp_8b330d02d0_prod0820_fp8_kvcache_20260402",
            "created": 1784906036,
            "finish_reason": "stop",
            "usage": {
              "prompt_tokens": 2194,
              "completion_tokens": 164,
              "total_tokens": 2358,
              "prompt_cache_hit_tokens": 0,
              "prompt_cache_miss_tokens": 2194
            },
            "cost_usd": 0.00035308000000000003,
            "raw_content": "{\n  \"completeness\": 5,\n  \"terminology\": 4,\n  \"structure\": 5,\n  \"reasoning\": \"Completeness: All requested items (SAFFL, ITTFL, TRT01P, TRT01A, TRTSDT, TRTEDT) are addressed with detailed derivation logic, code snippets, edge cases, and validation checks. Terminology: Correct use of CDISC variable names and concepts (USUBJID, SDTM, ADaM, TRT01P, etc.), but lacks explicit controlled terminology references (e.g., Codelist IDs) and IG version citations. Structure: Output is machine-readable with clear code, tables, and validation assertions; production-ready with schema-like final variable list and XPT output.\"\n}",
            "raw_content_sha256": "0e83b16491fbf09be5ea8c28058bfa5a36fd1cd06e517c4ecb2c0d79417bdf8c",
            "completed_at": "2026-07-24T15:13:58.881384+00:00"
          }
        ],
        "judged_at": "2026-07-24T15:13:58.881384+00:00"
      },
      "judge_model_requested": "deepseek-v4-flash",
      "judge_model_returned": "deepseek-v4-flash",
      "judge_response_id": "5e39a95b-1243-4778-83af-0f9b1c3c9f23",
      "judge_input_tokens": 2194,
      "judge_output_tokens": 164,
      "judge_cost_usd": 0.00035308000000000003,
      "judge_parse_error": null
    },
    {
      "experiment_id": "20260410_082605_task-06-sdtm-dm_agent_framework",
      "timestamp": "2026-04-10T08:26:05.344211",
      "task_id": "task-06-sdtm-dm",
      "graph_node": "sdtm-dm-mapping",
      "layer": 2,
      "condition": "agent_framework",
      "prompt_preview": "--=={ context: sdtm-dm-mapping }==--\n\n## Graph Position\nLayer: 2 (SDTM Creation)\nNode:  sdtm-dm-mapping\nBudget: 6510/8000 tokens (APS: 4 loaded | 1 truncated | 0 dropped | 6510/8000 tokens)\n\n## Skills (5 active, ~6510 tokens)\n--------------------------------------------------\n  [FULL ] [GLOB] data-quality                   ~1690 tokens (p=0.23)\n  [TRUNC] [GLOB] sdtm-dm-mapper                 ~1781 tokens (p=0.23)\n  [FULL ] [GLOB] sdtm-validator                 ~782 tokens (p=0.23)\n  [FULL ] [GLO",
      "response": "# SDTM DM Domain Mapping Specification\n\n## Source \u2192 Target Mapping\n\nBased on the SDTM DM mapper skill, here is the complete mapping from raw demographics to the SDTM DM domain:\n\n---\n\n## 1. USUBJID Construction\n\n| Component | Source | Derivation |\n|-----------|--------|------------|\n| USUBJID | Derived | `STUDYID`-`SITEID`-`SUBJID` |\n\n**Format Rules:**\n- Max **11 characters** (CDISC recommendation: 8\u201311 chars)\n- Alphanumeric only; hyphens as separators\n- Pattern: `^[A-Z0-9]{2,3}-[A-Z0-9]{3,4}-[A-Z0-9]{3,4}$`\n- Must be **globally unique** across all subjects/domains\n\n**Example:** If `STUDYID=X01`, `SITEID=001`, `SUBJID=001` \u2192 `X01-001-001`\n\n---\n\n## 2. AGE / AGEU Derivation\n\n| Variable | Source | Derivation |\n|----------|--------|------------|\n| AGE | BRTHDAT \u2192 RFSTDTC | Integer years from birth date to reference start date |\n| AGEU | Fixed | `\"YEARS\"` |\n\n**Logic:**\n```\nAGE = integer part of (RFSTDTC - BRTHDAT) in years\n     (floor of the difference; must be 0\u2013120)\n```\n\n**Edge case \u2014 Missing BRTHDAT:** Report as null; flag for data query. Do NOT impute.\n\n---\n\n## 3. SEX \u2192 CDISC CT (C66731)\n\n| Raw Value | \u2192 SDTM Code | Label |\n|-----------|-------------|-------|\n| M, Male, 1, MALE | **M** | Male |\n| F, Female, 2, FEMALE | **F** | Female |\n| U, Unknown, 0, UNKNOWN | **U** | Unknown |\n| UN, Undifferentiated | **UN** | Undifferentiated |\n\n**Dynamic mapping logic:** Normalize raw value (upper-case, strip whitespace), then match against accepted aliases. Unmatched values \u2192 flag as error (do NOT default to U/UNKNOWN).\n\n---\n\n## 4. RACE \u2192 CDISC CT (C74457)\n\n| Raw Value | \u2192 SDTERM | Label |\n|-----------|----------|-------|\n| WHITE, 1, W | **WHITE** | White |\n| BLACK, BLACK OR AFRICAN AMERICAN, 2 | **BLACK OR AFRICAN AMERICAN** | Black or African American |\n| ASIAN, 3, A | **ASIAN** | Asian |\n| AIAN, AMERICAN INDIAN\u2026, 4 | **AMERICAN INDIAN OR ALASKA NATIVE** | American Indian or Alaska Native |\n| NHPI, NATIVE HAWAIIAN\u2026, 5 | **NATIVE HAWAIIAN OR OTHER PACIFIC ISLANDER** | Native Hawaiian or Other Pacific Islander |\n| MULTIPLE, MULTIRACIAL, 6 | **MULTIPLE** | Multiple |\n| OTHER, 7 | **OTHER** | Other |\n| UNKNOWN, UNK, 9 | **UNKNOWN** | Unknown |\n\n---\n\n## 5. ETHNIC \u2192 CDISC CT (C66790)\n\n| Raw Value | \u2192 SDTERM | Label |\n|-----------|----------|-------|\n| HISPANIC, HISPANIC OR LATINO, 1 | **HISPANIC OR LATINO** | Hispanic or Latino |\n| NOT HISPANIC, NOT HISPANIC OR LATINO, 2 | **NOT HISPANIC OR LATINO** | Not Hispanic or Latino |\n| NOT REPORTED, 3 | **NOT REPORTED** | Not Reported |\n| UNKNOWN, 4 | **UNKNOWN** | Unknown |\n\n---\n\n## 6. ARM / ARMCD from TRTGRP\n\n| Variable | Source | Derivation |\n|----------|--------|------------|\n| ARM | TRTGRP \u2192 `study_config['treatment_arms']` | Read **dynamically** from study config; never hardcode |\n| ARMCD | Derived from ARM | Max **8 characters**, alphanumeric; derived from ARM label |\n\n**ARMCD Rules:**\n- Maximum 8 characters\n- Alphanumeric only\n- Derived dynamically from the ARM value (e.g., truncation or abbreviation convention)\n- Must be unique per arm\n- **Never** hardcode \u2014 always resolve from `ops/workflow-state.yaml` treatment arm definitions\n\n---\n\n## 7. Remaining Fixed / Derived Variables\n\n| Variable | Value | Notes |\n|----------|-------|-------|\n| STUDYID | From study config | `ops/workflow-state.yaml` |\n| DOMAIN | `\"DM\"` | Fixed |\n| SUBJID | RAW.DM (SUBJID) | Subject ID within site |\n| SITEID | RAW.DM (SITE) | Site identifier |\n| COUNTRY | RAW.DM (COUNTRY) | ISO 3166-1 alpha-3 (e.g., USA, GBR) |\n| RFSTDTC | Derived | First exposure date (ISO 8601) |\n| RFENDTC | Derived | Last exposure date (ISO 8601) |\n| DMDTC | RAW.DM | Date of demographics collection (ISO 8601) |\n| DMDY | Derived | Study day of demographics collection |\n\n---\n\n## Validation Checklist (Post-Mapping)\n\n| # | Check | Rule |\n|---|-------|------|\n| 1 | **Required variables present** | STUDYID, DOMAIN, USUBJID, SUBJID, SITEID, AGE, AGEU, SEX, RACE, ARM, ARMCD \u2014 all non-null |\n| 2 | **USUBJID uniqueness** | Exactly one DM record per subject; zero duplicates |\n| 3 | **CT conformance** | SEX, RACE, ETHNIC match CDISC CT exactly |\n| 4 | **AGE range** | Integer, 0\u2013120 |\n| 5 | **ARMCD length** | \u2264 8 characters, alphanumeric |\n| 6 | **ARM matches study config** | All ARM values exist in `treatment_arms` definition |\n| 7 | **ISO 8601 dates** | RFSTDTC, RFENDTC, DMDTC in `YYYY-MM-DD` format |\n| 8 | **COUNTRY codes** | Valid ISO 3166-1 alpha-3 |\n\n---\n\n## Critical Constraints (Must Not Violate)\n\n- **Never** create duplicate USUBJIDs\n- **Never** allow missing STUDYID, DOMAIN, or USUBJID\n- **Never** use non-CDISC controlled terminology for SEX, RACE, ETHNIC\n- **Never** hardcode ARM/ARMCD \u2014 resolve dynamically from study config\n- **Never** proceed if raw data is missing/empty or study config is absent\n- **Always** log all mapping decisions and deviations for traceability",
      "skills_loaded": [
        "data-quality",
        "sdtm-dm-mapper",
        "sdtm-validator",
        "workflow",
        "workflow-status"
      ],
      "skills_count": 5,
      "skills_tokens": 6510,
      "principles_used": [],
      "principles_count": 0,
      "context_strategy": "APS: 4 loaded | 1 truncated | 0 dropped | 6510/8000 tokens",
      "tokens_in": 26808,
      "tokens_out": 1900,
      "dim_completeness": 5.0,
      "dim_terminology": 5.0,
      "dim_structure": 5.0,
      "dim_reasoning": "The output covers all requested items with detailed derivation logic, edge cases, validation checks, and dynamic configuration references. It uses correct CDISC terminology, includes controlled terminology codes (C66731, C74457, C66790), ISO 8601, and cross-domain traceability. The structure is well-organized with tables, code-like formatting, and a validation checklist, making it production-ready.",
      "quality_score": 5.0,
      "auto_metrics": {
        "response_length": 4831,
        "word_count": 813,
        "cdisc_term_count": 79,
        "cdisc_terms_found": [
          "USUBJID",
          "STUDYID",
          "SDTM",
          "CDISC",
          "CT",
          "RFSTDTC",
          "RFENDTC",
          "ARM",
          "ARMCD",
          "AGE",
          "AGEU",
          "SEX",
          "RACE",
          "ETHNIC",
          "ISO 8601"
        ],
        "code_block_count": 0,
        "codelist_ref_count": 3,
        "table_row_count": 54
      },
      "cost_usd": 0.000315,
      "agent_model": "glm-5",
      "agent_duration_ms": 69624,
      "agent_num_turns": 1,
      "run_id": 2,
      "is_error_response": false,
      "run_key": "task-06-sdtm-dm::agent_framework::2",
      "prefix_judgment": {
        "policy": "first_4000_characters",
        "response_characters_judged": 4000,
        "dim_completeness": 5.0,
        "dim_terminology": 5.0,
        "dim_structure": 4.0,
        "dim_reasoning": "COMPLETENESS: Score 5. All requested mappings (USUBJID, AGE/AGEU, SEX, RACE, ETHNIC, ARM/ARMCD) are addressed with detailed derivation logic, edge cases (missing BRTHDAT), and explicit validation chec",
        "quality_score": 4.67,
        "judge_model_requested": "deepseek-chat"
      },
      "full_response_judgment": {
        "policy": "full_stored_response_no_character_truncation",
        "truncated": false,
        "response_characters_judged": 4831,
        "response_bytes_judged": 4873,
        "response_sha256": "074fc6fec2ab5573b4ea94ab9e96aca91f04719897789015cc97fbe678d47c31",
        "rendered_prompt_characters": 6699,
        "rendered_prompt_bytes": 6741,
        "rendered_prompt_sha256": "c07aea5eb74b2a4673374017c76927f187e3ceb79fab934a1990b0fd27921887",
        "scores": {
          "completeness": 5.0,
          "terminology": 5.0,
          "structure": 5.0
        },
        "reasoning": "The output covers all requested items with detailed derivation logic, edge cases, validation checks, and dynamic configuration references. It uses correct CDISC terminology, includes controlled terminology codes (C66731, C74457, C66790), ISO 8601, and cross-domain traceability. The structure is well-organized with tables, code-like formatting, and a validation checklist, making it production-ready.",
        "judge_model_requested": "deepseek-v4-flash",
        "judge_model_returned": "deepseek-v4-flash",
        "judge_response_id": "177dcad1-07ef-4755-b7a9-207b3ba9544a",
        "system_fingerprint": "fp_8b330d02d0_prod0820_fp8_kvcache_20260402",
        "created": 1784906036,
        "finish_reason": "stop",
        "judge_input_tokens": 2028,
        "judge_output_tokens": 111,
        "judge_cost_usd": 0.000315,
        "judge_parse_error": null,
        "attempts": [
          {
            "attempt": 1,
            "request_error": null,
            "judge_parse_error": null,
            "judge_model_returned": "deepseek-v4-flash",
            "judge_response_id": "177dcad1-07ef-4755-b7a9-207b3ba9544a",
            "system_fingerprint": "fp_8b330d02d0_prod0820_fp8_kvcache_20260402",
            "created": 1784906036,
            "finish_reason": "stop",
            "usage": {
              "prompt_tokens": 2028,
              "completion_tokens": 111,
              "total_tokens": 2139,
              "prompt_cache_hit_tokens": 0,
              "prompt_cache_miss_tokens": 2028
            },
            "cost_usd": 0.000315,
            "raw_content": "{\n  \"completeness\": 5,\n  \"terminology\": 5,\n  \"structure\": 5,\n  \"reasoning\": \"The output covers all requested items with detailed derivation logic, edge cases, validation checks, and dynamic configuration references. It uses correct CDISC terminology, includes controlled terminology codes (C66731, C74457, C66790), ISO 8601, and cross-domain traceability. The structure is well-organized with tables, code-like formatting, and a validation checklist, making it production-ready.\"\n}",
            "raw_content_sha256": "af2c08dfbe123891a1bc48c3e9fd5d039c2343700d167f0e41bb9c3bc743e73a",
            "completed_at": "2026-07-24T15:13:58.589916+00:00"
          }
        ],
        "judged_at": "2026-07-24T15:13:58.589916+00:00"
      },
      "judge_model_requested": "deepseek-v4-flash",
      "judge_model_returned": "deepseek-v4-flash",
      "judge_response_id": "177dcad1-07ef-4755-b7a9-207b3ba9544a",
      "judge_input_tokens": 2028,
      "judge_output_tokens": 111,
      "judge_cost_usd": 0.000315,
      "judge_parse_error": null
    },
    {
      "experiment_id": "20260410_082732_task-14-adam-adae_agent_framework",
      "timestamp": "2026-04-10T08:27:32.914590",
      "task_id": "task-14-adam-adae",
      "graph_node": "adam-adae",
      "layer": 4,
      "condition": "agent_framework",
      "prompt_preview": "--=={ context: adam-adae }==--\n\n## Graph Position\nLayer: 4 (ADaM Creation)\nNode:  adam-adae\nBudget: 6728/8000 tokens (APS: 4 loaded | 1 truncated | 0 dropped | 6728/8000 tokens)\n\n## Skills (5 active, ~6728 tokens)\n--------------------------------------------------\n  [FULL ] [GLOB] adam-adae-builder              ~1086 tokens (p=0.23)\n  [TRUNC] [GLOB] adam-validator                 ~1695 tokens (p=0.23)\n  [FULL ] [GLOB] data-quality                   ~1690 tokens (p=0.23)\n  [FULL ] [GLOB] workflow",
      "response": "# ADAE Derivation from AE + ADSL\n\nBelow is the complete derivation pipeline, organized by each requested variable group.\n\n---\n\n## 0. Merge Foundation\n\n```python\ndef build_adae(sdtm_dir, adsl_path, cfg):\n    ae  = read_xpt(f\"{sdtm_dir}/ae.xpt\")\n    adsl = read_xpt(adsl_path)\n\n    # Left join: every AE record inherits ADSL population/treatment vars\n    adae = ae.merge(adsl, on='USUBJID', how='left')\n    assert adae['USUBJID'].notna().all(), \"Orphan AE records detected \u2014 aborting\"\n\n    return derive_all(adae, cfg)\n```\n\n> **Constraint:** Never exclude orphans silently; fail fast. Never default TRTEMFL to `'Y'`.\n\n---\n\n## 1. TRTEMFL \u2014 Treatment-Emergent Flag\n\n**Rule:** An AE is treatment-emergent if it starts **on or after** the first treatment date (`TRTSDT`), and is **within** the post-treatment window from `TRTEDT`.\n\n```python\nfrom datetime import timedelta\n\ndef derive_trtemfl(astdt, trtsdt, trtedt, saffl, cfg):\n    w = cfg.get('teae_window_days', 30)\n    if saffl != 'Y':\n        return 'N'                        # not in safety population\n    if not astdt or not trtsdt:\n        return ''                         # indeterminate \u2014 missing date\n    if astdt < trtsdt:\n        return 'N'                        # pre-treatment AE \u2014 include but not TE\n    if trtedt and astdt > trtedt + timedelta(days=w):\n        return 'N'                        # outside post-treatment window\n    return 'Y'\n```\n\n### Edge Cases\n\n| Scenario | TRTEMFL | Rationale |\n|---|---|---|\n| Missing `AESTDTC` | `''` (blank) | Indeterminate \u2014 cannot classify |\n| Partial date (year-month) | Impute `-01` for start | Conservative imputation |\n| Same day as TRTSDT | `'Y'` | On-treatment by definition |\n| Pre-treatment AE | `'N'` | Include in dataset but flag as non-TE |\n| Outside window from TRTEDT | `'N'` | Configurable window (default 30 days) |\n| SAFFL \u2260 'Y' | `'N'` | Not in safety population |\n\n```python\n# Vectorized application\nadae['TRTEMFL'] = adae.apply(\n    lambda r: derive_trtemfl(r['ASTDT'], r['TRTSDT'], r['TRTEDT'], r['SAFFL'], cfg),\n    axis=1\n)\n```\n\n---\n\n## 2. ASTDT / AENDT \u2014 Analysis Start/End Dates\n\n**Rule:** Parse ISO 8601 partial dates from `AESTDTC`/`AEENDTC`. Impute conservatively: start dates get the **first** of the period; end dates get the **last**.\n\n```python\nfrom datetime import date\nimport calendar\n\ndef parse(s): return date.fromisoformat(s)\n\ndef last_day(ym):\n    y, m = int(ym[:4]), int(ym[5:7])\n    return date(y, m, calendar.monthrange(y, m)[1])\n\ndef derive_dates(aestdtc, aeendtc):\n    # --- Start date ---\n    if not aestdtc:\n        astdt = None\n    elif len(aestdtc) >= 10:\n        astdt = parse(aestdtc[:10])          # full: 2024-03-15\n    elif len(aestdtc) == 7:\n        astdt = parse(aestdtc + \"-01\")        # partial: 2024-03 \u2192 2024-03-01\n    elif len(aestdtc) == 4:\n        astdt = parse(aestdtc + \"-01-01\")     # year-only: 2024 \u2192 2024-01-01\n    else:\n        astdt = None\n\n    # --- End date ---\n    if not aeendtc:\n        aendt = None\n    elif len(aeendtc) >= 10:\n        aendt = parse(aeendtc[:10])\n    elif len(aeendtc) == 7:\n        aendt = last_day(aeendtc)             # 2024-03 \u2192 2024-03-31\n    elif len(aeendtc) == 4:\n        aendt = parse(aeendtc + \"-12-31\")     # 2024 \u2192 2024-12-31\n    else:\n        aendt = None\n\n    return astdt, aendt\n```\n\n### Study Day Derivation (ASTDY / AENDY)\n\n```python\ndef derive_study_days(astdt, aendt, trtsdt):\n    astdy = (astdt - trtsdt).days + 1 if astdt and trtsdt else None\n    aendy = (aendt - trtsdt).days + 1 if aendt and trtsdt else None\n    return astdy, aendy\n```\n\n> Day 1 = first treatment day (convention: `(date - TRTSDT).days + 1`).\n\n```python\n# Vectorized application\nadae[['ASTDT', 'AENDT']] = adae.apply(\n    lambda r: pd.Series(derive_dates(r.get('AESTDTC'), r.get('AEENDTC'))),\n    axis=1\n)\nadae[['ASTDY', 'AENDY']] = adae.apply(\n    lambda r: pd.Series(derive_study_days(r['ASTDT'], r['AENDT'], r['TRTSDT'])),\n    axis=1\n)\n```\n\n---\n\n## 3. AOCCFL / AOCCPFL \u2014 First Occurrence Flags\n\n### AOCCFL \u2014 First Occurrence of Any AE by Preferred Term\n\nMarks the **first treatment-emergent** occurrence of a given `AEDECOD` (MedDRA Preferred Term) for each subject.\n\n```python\ndef derive_aoccfl(adae):\n    adae['AOCCFL'] = 'N'\n    teae = adae[adae['TRTEMFL'] == 'Y'].sort_values(['USUBJID', 'AEDECOD', 'ASTDT'])\n\n    # Group by subject + decoded term; mark the earliest TEAE\n    for (uid, decod), _ in teae.groupby(['USUBJID', 'AEDECOD']).first().iterrows():\n        mask = (\n            (adae['USUBJID'] == uid) &\n            (adae['AEDECOD'] == decod) &\n            (adae['TRTEMFL'] == 'Y')\n        )\n        first_idx = adae[mask].sort_values('ASTDT').index[0]\n        adae.at[first_idx, 'AOCCFL'] = 'Y'\n\n    return adae\n```\n\n### AOCCPFL \u2014 First Occurrence of Any AE by Subject\n\nMarks the **first treatment-emergent AE overall** for each subject (regardless of term). This is the broader \"did this subject experience any TEAE?\" flag.\n\n```python\ndef derive_aocc_pfl(adae):\n    adae['AOCCPFL'] = 'N'\n    teae = adae[adae['TRTEMFL'] == 'Y'].sort_values(['USUBJID', 'ASTDT'])\n\n    for uid, grp in teae.groupby('USUBJID'):\n        if grp.empty:\n            continue\n        first_idx = grp.index[0]\n        adae.at[first_idx, 'AOCCPFL'] = 'Y'\n\n    return adae\n```\n\n### Key Distinction\n\n| Flag | Scope | Meaning |\n|------|-------|---------|\n| `AOCCFL` | Per `(USUBJID, AEDECOD)` | First TEAE of this specific preferred term |\n| `AOCCPFL` | Per `USUBJID` | First TEAE of any kind for this subject |\n\n> **Edge case:** Duplicate AEs \u2014 keep all records, only the chronologically first gets `'Y'`. Missing `AEDECOD` \u2014 flag and fall back to `AETERM`.\n\n---\n\n## 4. ADURN \u2014 AE Duration in Days\n\n```python\ndef derive_adurn(astdt, aendt):\n    if astdt and aendt:\n        return (aendt - astdt).days + 1    # inclusive of both start and end\n    return None\n```\n\n```python\nadae['ADURN'] = adae.apply(\n    lambda r: derive_adurn(r['ASTDT'], r['AENDT']),\n    axis=1\n)\n```\n\n> Returns `None` when either start or end date is missing (no imputation for duration).\n\n---\n\n## 5. Severity & Seriousness (Complementary)\n\n```python\n# AESEV: Already sourced from AE \u2014 verify CDISC CT C66769\n# Valid values: MILD, MODERATE, SEVERE\nassert adae['AESEV'].isin(['MILD', 'MODERATE', 'SEVERE', None]).all()\n\n# AESER: 'Y' if ANY serious criterion is 'Y'\nserious_cols = ['AESDTH', 'AESLIFE', 'AESHOSP', 'AESDISAB', 'AESCONG', 'AESMIE']\nadae['AESER'] = adae[serious_cols].apply(\n    lambda r: 'Y' if (r == 'Y').any() else 'N',\n    axis=1\n)\n```\n\n---\n\n## 6. Output Schema\n\n| Variable | Type | Source | Derivation |\n|----------|------|--------|------------|\n| `USUBJID` | Char(11) | AE + ADSL merge key | Direct |\n| `TRTA` / `TRTP` | Char(40) | ADSL | Inherited |\n| `SAFFL` | Char(1) | ADSL | Inherited |\n| `AETERM` / `AEDECOD` / `AEBODSYS` | Char(200/100) | AE | Direct |\n| `AESEV` / `AESER` | Char(10/1) | AE / Derived | See \u00a75 |\n| **`TRTEMFL`** | Char(1) | **Derived** | \u00a71 |\n| **`ASTDT` / `AENDT`** | Num (SAS date) | **Derived** | \u00a72 |\n| `ASTDY` / `AENDY` | Num | **Derived** | \u00a72 |\n| **`AOCCFL`** | Char(1) | **Derived** | \u00a73 |\n| **`AOCCPFL`** | Char(1) | **Derived** | \u00a73 |\n| **`ADURN`** | Num | **Derived** | \u00a74 |\n\n---\n\n## 7. Execution Order\n\n```\nAE.xpt  \u2500\u2500\u2510\n           \u251c\u2500\u2500 left join on USUBJID \u2500\u2500\u25ba derive_dates() \u2500\u2500\u25ba derive_trtemfl()\nADSL.xpt \u2500\u2518                                 \u2502                    \u2502\n                                            \u25bc                    \u25bc\n                                      ASTDT, AENDT          TRTEMFL='Y'/'N'/''\n                                      ASTDY, AENDY                \u2502\n                                            \u2502                     \u2502\n                                            \u2514\u2500\u2500\u2500\u2500\u2500\u2500\u252c\u2500\u2500\u2500\u2500\u2500\u2500\u2500\u2500\u2500\u2500\u2500\u2500\u2500\u2500\u2518\n                                                   \u25bc\n                                          derive_aoccfl()    (uses TRTEMFL='Y' + ASTDT)\n                                          derive_aocc_pfl()  (uses TRTEMFL='Y' + ASTDT)\n                                                   \u2502\n                                                   \u25bc\n                                              derive_adurn()     (uses ASTDT, AENDT)\n                                                   \u2502\n                                                   \u25bc\n                                              ADAE dataset (xpt)\n```\n\n> **Never** default TRTEMFL to `'Y'`, hardcode the TEAE window, or deduplicate blindly. **Always** merge ADSL\u2192AE, document imputation rules, use `cfg` for the window parameter, and validate against the SAP.",
      "skills_loaded": [
        "adam-adae-builder",
        "adam-validator",
        "data-quality",
        "workflow",
        "workflow-status"
      ],
      "skills_count": 5,
      "skills_tokens": 6728,
      "principles_used": [],
      "principles_count": 0,
      "context_strategy": "APS: 4 loaded | 1 truncated | 0 dropped | 6728/8000 tokens",
      "tokens_in": 9338,
      "tokens_out": 2815,
      "dim_completeness": 5.0,
      "dim_terminology": 5.0,
      "dim_structure": 5.0,
      "dim_reasoning": "All requested items are addressed with detailed derivation logic, code snippets, edge cases, and validation checks. CDISC terminology is correctly used, including variable names, codelist references, ISO 8601, and traceability. The output is well-structured with tables, code blocks, and a clear execution order, making it machine-readable and actionable.",
      "quality_score": 5.0,
      "auto_metrics": {
        "response_length": 8511,
        "word_count": 1085,
        "cdisc_term_count": 106,
        "cdisc_terms_found": [
          "USUBJID",
          "ADSL",
          "ADAE",
          "CDISC",
          "CT",
          "AESTDTC",
          "AEENDTC",
          "AEDECOD",
          "AEBODSYS",
          "AETERM",
          "AESEV",
          "AESER",
          "TRTSDT",
          "TRTEDT",
          "TRTEMFL",
          "SAFFL",
          "MedDRA",
          "ISO 8601",
          "SAF",
          "AOCCFL",
          "AOCCPFL",
          "ASTDT",
          "AENDT",
          "ADURN"
        ],
        "code_block_count": 11,
        "codelist_ref_count": 1,
        "table_row_count": 25
      },
      "cost_usd": 0.00046858,
      "agent_model": "glm-5",
      "agent_duration_ms": 81495,
      "agent_num_turns": 1,
      "run_id": 0,
      "is_error_response": false,
      "run_key": "task-14-adam-adae::agent_framework::0",
      "prefix_judgment": {
        "policy": "first_4000_characters",
        "response_characters_judged": 4000,
        "dim_completeness": 5.0,
        "dim_terminology": 5.0,
        "dim_structure": 5.0,
        "dim_reasoning": "Completeness: All requested variables (TRTEMFL, ASTDT/AENDT, AOCCFL/AOCCPFL, ADURN) are addressed with detailed derivation logic, edge cases, and validation checks (e.g., fail-fast orphan detection). ",
        "quality_score": 5.0,
        "judge_model_requested": "deepseek-chat"
      },
      "full_response_judgment": {
        "policy": "full_stored_response_no_character_truncation",
        "truncated": false,
        "response_characters_judged": 8511,
        "response_bytes_judged": 8654,
        "response_sha256": "2a587d9321ff1cc54d7a7be2422136762cd6275b6a0601f10a58964cee57762b",
        "rendered_prompt_characters": 10256,
        "rendered_prompt_bytes": 10399,
        "rendered_prompt_sha256": "b03ef620a22eb4d3cb1b560d6b7ec709f75ca8f645f5751a4d701d1d8ac54f82",
        "scores": {
          "completeness": 5.0,
          "terminology": 5.0,
          "structure": 5.0
        },
        "reasoning": "All requested items are addressed with detailed derivation logic, code snippets, edge cases, and validation checks. CDISC terminology is correctly used, including variable names, codelist references, ISO 8601, and traceability. The output is well-structured with tables, code blocks, and a clear execution order, making it machine-readable and actionable.",
        "judge_model_requested": "deepseek-v4-flash",
        "judge_model_returned": "deepseek-v4-flash",
        "judge_response_id": "25609317-18e0-4188-97bd-5676397bf3f3",
        "system_fingerprint": "fp_8b330d02d0_prod0820_fp8_kvcache_20260402",
        "created": 1784906038,
        "finish_reason": "stop",
        "judge_input_tokens": 3145,
        "judge_output_tokens": 101,
        "judge_cost_usd": 0.00046858,
        "judge_parse_error": null,
        "attempts": [
          {
            "attempt": 1,
            "request_error": null,
            "judge_parse_error": null,
            "judge_model_returned": "deepseek-v4-flash",
            "judge_response_id": "25609317-18e0-4188-97bd-5676397bf3f3",
            "system_fingerprint": "fp_8b330d02d0_prod0820_fp8_kvcache_20260402",
            "created": 1784906038,
            "finish_reason": "stop",
            "usage": {
              "prompt_tokens": 3145,
              "completion_tokens": 101,
              "total_tokens": 3246,
              "prompt_cache_hit_tokens": 0,
              "prompt_cache_miss_tokens": 3145
            },
            "cost_usd": 0.00046858,
            "raw_content": "{\n  \"completeness\": 5,\n  \"terminology\": 5,\n  \"structure\": 5,\n  \"reasoning\": \"All requested items are addressed with detailed derivation logic, code snippets, edge cases, and validation checks. CDISC terminology is correctly used, including variable names, codelist references, ISO 8601, and traceability. The output is well-structured with tables, code blocks, and a clear execution order, making it machine-readable and actionable.\"\n}",
            "raw_content_sha256": "c1a9e1762fa8831d70e7db27323db7ff310be51b27fe3e9e10374f425d0ddc11",
            "completed_at": "2026-07-24T15:13:59.919829+00:00"
          }
        ],
        "judged_at": "2026-07-24T15:13:59.919829+00:00"
      },
      "judge_model_requested": "deepseek-v4-flash",
      "judge_model_returned": "deepseek-v4-flash",
      "judge_response_id": "25609317-18e0-4188-97bd-5676397bf3f3",
      "judge_input_tokens": 3145,
      "judge_output_tokens": 101,
      "judge_cost_usd": 0.00046858,
      "judge_parse_error": null
    },
    {
      "experiment_id": "20260410_082914_task-21-define-sdtm_agent_framework_distill",
      "timestamp": "2026-04-10T08:29:14.835983",
      "task_id": "task-21-define-sdtm",
      "graph_node": "define-xml-sdtm",
      "layer": 6,
      "condition": "agent_framework_distill",
      "prompt_preview": "--=={ context: define-xml-sdtm }==--\n\n## Graph Position\nLayer: 6 (Define.xml & Submission)\nNode:  define-xml-sdtm\nBudget: 7731/8000 tokens (APS: 5 loaded | 2 principles | 0 truncated | 0 dropped | 7731/8000 tokens)\n\n## Principles (2 retrieved, ~218 tokens)\n--------------------------------------------------\n  [GUIDING] [guiding] (confidence: 86%)\n     Effective define.xml creation requires precise adherence to standardized metadata structures and con...\n  [GUIDING] [guiding] (confidence: 86%)\n   ",
      "response": "# Define.xml Specification \u2014 SDTM Datasets DM & AE\n\n**Standard:** CDISC SDTM IG v3.4 | **Define-XML Version:** 2.1.0\n\n---\n\n## 1. Document-Level Metadata\n\n```xml\n<?xml version=\"1.0\" encoding=\"UTF-8\"?>\n<ODM xmlns=\"http://www.cdisc.org/ns/odm/v1.3\"\n     xmlns:def=\"http://www.cdisc.org/ns/def/v2.1\"\n     FileType=\"Snapshot\"\n     FileOID=\"{STUDY_ID}-define-{timestamp}\"\n     CreationDateTime=\"{ISO_8601}\">\n  <Study OID=\"{STUDY_ID}\">\n    <GlobalVariables>\n      <StudyName>{STUDY_ID}</StudyName>\n      <StudyDescription>{study_description}</StudyDescription>\n      <ProtocolName>{protocol_name}</ProtocolName>\n    </GlobalVariables>\n    <MetaDataVersion OID=\"CDISC.Define.{STUDY_ID}\"\n                     Name=\"{STUDY_ID} Define.xml\"\n                     def:DefineVersion=\"2.1.0\"\n                     def:StandardName=\"CDISC SDTM\"\n                     def:StandardVersion=\"3.4\">\n```\n\n---\n\n## 2. Dataset-Level Definitions (ItemGroupDef)\n\n### DM \u2014 Demographics\n\n| Attribute | Value |\n|-----------|-------|\n| **OID** | `IG.DM` |\n| **Name** | DM |\n| **Domain** | DM |\n| **Label** | Demographics |\n| **Class** | SPECIAL PURPOSE |\n| **Structure** | One record per subject |\n| **Repeating** | No |\n| **IsReferenceData** | No |\n| **def:DatasetName** | DM |\n\n```xml\n<ItemGroupDef OID=\"IG.DM\" Name=\"DM\" Domain=\"DM\"\n              Repeating=\"No\" IsReferenceData=\"No\"\n              def:Structure=\"One record per subject\"\n              def:DatasetName=\"DM\"\n              def:HasNoData=\"No\">\n  <Description><TranslatedText>Demographics</TranslatedText></Description>\n  <ItemRef ItemOID=\"IT.DM.STUDYID\" OrderNumber=\"1\"  Mandatory=\"Yes\"/>\n  <ItemRef ItemOID=\"IT.DM.DOMAIN\"  OrderNumber=\"2\"  Mandatory=\"Yes\"/>\n  <ItemRef ItemOID=\"IT.DM.USUBJID\" OrderNumber=\"3\"  Mandatory=\"Yes\"/>\n  <ItemRef ItemOID=\"IT.DM.SUBJID\"  OrderNumber=\"4\"  Mandatory=\"Yes\"/>\n  <ItemRef ItemOID=\"IT.DM.RFSTDTC\" OrderNumber=\"5\"  Mandatory=\"No\"/>\n  <ItemRef ItemOID=\"IT.DM.RFENDTC\" OrderNumber=\"6\"  Mandatory=\"No\"/>\n  <ItemRef ItemOID=\"IT.DM.SITEID\"  OrderNumber=\"7\"  Mandatory=\"Yes\"/>\n  <ItemRef ItemOID=\"IT.DM.SEX\"     OrderNumber=\"8\"  Mandatory=\"Yes\"/>\n  <ItemRef ItemOID=\"IT.DM.AGE\"     OrderNumber=\"9\"  Mandatory=\"Yes\"/>\n  <ItemRef ItemOID=\"IT.DM.AGEU\"    OrderNumber=\"10\" Mandatory=\"No\"/>\n  <ItemRef ItemOID=\"IT.DM.RACE\"    OrderNumber=\"11\" Mandatory=\"No\"/>\n  <ItemRef ItemOID=\"IT.DM.ARMCD\"   OrderNumber=\"12\" Mandatory=\"Yes\"/>\n  <ItemRef ItemOID=\"IT.DM.ARM\"     OrderNumber=\"13\" Mandatory=\"Yes\"/>\n  <ItemRef ItemOID=\"IT.DM.ACTARMCD\" OrderNumber=\"14\" Mandatory=\"No\"/>\n  <ItemRef ItemOID=\"IT.DM.ACTARM\"   OrderNumber=\"15\" Mandatory=\"No\"/>\n</ItemGroupDef>\n```\n\n### AE \u2014 Adverse Events\n\n| Attribute | Value |\n|-----------|-------|\n| **OID** | `IG.AE` |\n| **Name** | AE |\n| **Domain** | AE |\n| **Label** | Adverse Events |\n| **Class** | EVENTS |\n| **Structure** | One record per adverse event per subject |\n| **Repeating** | Yes |\n| **IsReferenceData** | No |\n| **def:DatasetName** | AE |\n\n```xml\n<ItemGroupDef OID=\"IG.AE\" Name=\"AE\" Domain=\"AE\"\n              Repeating=\"Yes\" IsReferenceData=\"No\"\n              def:Structure=\"One record per adverse event per subject\"\n              def:DatasetName=\"AE\"\n              def:HasNoData=\"No\">\n  <Description><TranslatedText>Adverse Events</TranslatedText></Description>\n  <ItemRef ItemOID=\"IT.AE.STUDYID\"  OrderNumber=\"1\"  Mandatory=\"Yes\"/>\n  <ItemRef ItemOID=\"IT.AE.DOMAIN\"   OrderNumber=\"2\"  Mandatory=\"Yes\"/>\n  <ItemRef ItemOID=\"IT.AE.USUBJID\"  OrderNumber=\"3\"  Mandatory=\"Yes\"/>\n  <ItemRef ItemOID=\"IT.AE.AESEQ\"    OrderNumber=\"4\"  Mandatory=\"Yes\"/>\n  <ItemRef ItemOID=\"IT.AE.AESPID\"   OrderNumber=\"5\"  Mandatory=\"No\"/>\n  <ItemRef ItemOID=\"IT.AE.AETERM\"   OrderNumber=\"6\"  Mandatory=\"Yes\"/>\n  <ItemRef ItemOID=\"IT.AE.AEDECOD\"  OrderNumber=\"7\"  Mandatory=\"No\"/>\n  <ItemRef ItemOID=\"IT.AE.AEBODSYS\" OrderNumber=\"8\"  Mandatory=\"No\"/>\n  <ItemRef ItemOID=\"IT.AE.AESEV\"    OrderNumber=\"9\"  Mandatory=\"Yes\"/>\n  <ItemRef ItemOID=\"IT.AE.AESER\"    OrderNumber=\"10\" Mandatory=\"Yes\"/>\n  <ItemRef ItemOID=\"IT.AE.AEREL\"    OrderNumber=\"11\" Mandatory=\"No\"/>\n  <ItemRef ItemOID=\"IT.AE.AEOUT\"    OrderNumber=\"12\" Mandatory=\"No\"/>\n  <ItemRef ItemOID=\"IT.AE.AESTDTC\"  OrderNumber=\"13\" Mandatory=\"No\"/>\n  <ItemRef ItemOID=\"IT.AE.AEENDTC\"  OrderNumber=\"14\" Mandatory=\"No\"/>\n  <ItemRef ItemOID=\"IT.AE.AESTDT\"   OrderNumber=\"15\" Mandatory=\"No\"/>\n  <ItemRef ItemOID=\"IT.AE.AEENDT\"   OrderNumber=\"16\" Mandatory=\"No\"/>\n</ItemGroupDef>\n```\n\n---\n\n## 3. Variable-Level Definitions (ItemDef)\n\n### DM Variables\n\n| OID | Name | Label | DataType | Length | Role | Origin | CodeList Ref |\n|-----|------|-------|----------|--------|------|--------|-------------|\n| `IT.DM.STUDYID` | STUDYID | Study Identifier | text | 12 | Identifier | Assigned | \u2014 |\n| `IT.DM.DOMAIN` | DOMAIN | Domain Abbreviation | text | 2 | Identifier | Assigned | \u2014 |\n| `IT.DM.USUBJID` | USUBJID | Unique Subject Identifier | text | 20 | Identifier | Derived | \u2014 |\n| `IT.DM.SUBJID` | SUBJID | Subject Identifier for the Study | text | 8 | Identifier | CRF | \u2014 |\n| `IT.DM.RFSTDTC` | RFSTDTC | Subject Reference Start Date/Time | datetime | 20 | Identifier | Derived | \u2014 |\n| `IT.DM.RFENDTC` | RFENDTC | Subject Reference End Date/Time | datetime | 20 | Identifier | Derived | \u2014 |\n| `IT.DM.SITEID` | SITEID | Study Site Identifier | text | 6 | Identifier | Assigned | \u2014 |\n| `IT.DM.SEX` | SEX | Sex | text | 1 | Topic | CRF | `CL.SEX` |\n| `IT.DM.AGE` | AGE | Age | integer | 8 | Topic | CRF | \u2014 |\n| `IT.DM.AGEU` | AGEU | Age Units | text | 5 | Qualifier | CRF | `CL.AGEU` |\n| `IT.DM.RACE` | RACE | Race | text | 40 | Topic | CRF | `CL.RACE` |\n| `IT.DM.ARMCD` | ARMCD | Planned Arm Code | text | 8 | Topic | Assigned | `CL.ARMCD` |\n| `IT.DM.ARM` | ARM | Description of Planned Arm | text | 40 | Qualifier | Assigned | `CL.ARM` |\n| `IT.DM.ACTARMCD` | ACTARMCD | Actual Arm Code | text | 8 | Topic | Assigned | `CL.ARMCD` |\n| `IT.DM.ACTARM` | ACTARM | Description of Actual Arm | text | 40 | Qualifier | Assigned | `CL.ARM` |\n\n### AE Variables\n\n| OID | Name | Label | DataType | Length | Role | Origin | CodeList Ref |\n|-----|------|-------|----------|--------|------|--------|-------------|\n| `IT.AE.STUDYID` | STUDYID | Study Identifier | text | 12 | Identifier | Assigned | \u2014 |\n| `IT.AE.DOMAIN` | DOMAIN | Domain Abbreviation | text | 2 | Identifier | Assigned | \u2014 |\n| `IT.AE.USUBJID` | USUBJID | Unique Subject Identifier | text | 20 | Identifier | Derived | \u2014 |\n| `IT.AE.AESEQ` | AESEQ | Sequence Number | integer | 8 | Identifier | Derived | \u2014 |\n| `IT.AE.AESPID` | AESPID | Sponsor-Defined Identifier | text | 20 | Identifier | Assigned | \u2014 |\n| `IT.AE.AETERM` | AETERM | Reported Term for the Adverse Event | text | 200 | Topic | CRF | \u2014 |\n| `IT.AE.AEDECOD` | AEDECOD | Dictionary-Derived Term | text | 200 | Synonym Qualifier | Assigned | `CL.MEDDRA_PT` |\n| `IT.AE.AEBODSYS` | AEBODSYS | Body System or Organ Class | text | 200 | Synonym Qualifier | Assigned | `CL.MEDDRA_SOC` |\n| `IT.AE.AESEV` | AESEV | Severity/Intensity | text | 10 | Record Qualifier | CRF | `CL.AESEV` |\n| `IT.AE.AESER` | AESER | Serious Event | text | 1 | Record Qualifier | CRF | `CL.YESNO` |\n| `IT.AE.AEREL` | AEREL | Causality | text | 20 | Record Qualifier | CRF | `CL.AEREL` |\n| `IT.AE.AEOUT` | AEOUT | Outcome of Adverse Event | text | 20 | Record Qualifier | CRF | `CL.AEOUT` |\n| `IT.AE.AESTDTC` | AESTDTC | Start Date/Time of Adverse Event | datetime | 20 | Timing | CRF | \u2014 |\n| `IT.AE.AEENDTC` | AEENDTC | End Date/Time of Adverse Event | datetime | 20 | Timing | CRF | \u2014 |\n| `IT.AE.AESTDT` | AESTDT | Start Date of Adverse Event | date | 10 | Timing | Derived | \u2014 |\n| `IT.AE.AEENDT` | AEENDT | End Date of Adverse Event | date | 10 | Timing | Derived | \u2014 |\n\n---\n\n## 4. Controlled Terminology (CodeList)\n\n```xml\n<!-- SEX -->\n<CodeList OID=\"CL.SEX\" Name=\"SEX\" DataType=\"text\" def:Extensible=\"No\">\n  <CodeListItem CodedValue=\"M\" def:Rank=\"1\">\n    <Decode><TranslatedText>Male</TranslatedText></Decode>\n  </CodeListItem>\n  <CodeListItem CodedValue=\"F\" def:Rank=\"2\">\n    <Decode><TranslatedText>Female</TranslatedText></Decode>\n  </CodeListItem>\n  <CodeListItem CodedValue=\"U\" def:Rank=\"3\">\n    <Decode><TranslatedText>Unknown</TranslatedText></Decode>\n  </CodeListItem>\n  <CodeListItem CodedValue=\"UNDIFFERENTIATED\" def:Rank=\"4\">\n    <Decode><TranslatedText>Undifferentiated</TranslatedText></Decode>\n  </CodeListItem>\n</CodeList>\n\n<!-- AGEU -->\n<CodeList OID=\"CL.AGEU\" Name=\"AGEU\" DataType=\"text\" def:Extensible=\"No\">\n  <CodeListItem CodedValue=\"YEARS\">\n    <Decode><TranslatedText>Years</TranslatedText></Decode>\n  </CodeListItem>\n  <CodeListItem CodedValue=\"MONTHS\">\n    <Decode><TranslatedText>Months</TranslatedText></Decode>\n  </CodeListItem>\n  <CodeListItem CodedValue=\"WEEKS\">\n    <Decode><TranslatedText>Weeks</TranslatedText></Decode>\n  </CodeListItem>\n  <CodeListItem CodedValue=\"DAYS\">\n    <Decode><TranslatedText>Days</TranslatedText></Decode>\n  </CodeListItem>\n</CodeList>\n\n<!-- RACE -->\n<CodeList OID=\"CL.RACE\" Name=\"RACE\" DataType=\"text\" def:Extensible=\"Yes\">\n  <CodeListItem CodedValue=\"WHITE\">\n    <Decode><TranslatedText>White</TranslatedText></Decode>\n  </CodeListItem>\n  <CodeListItem CodedValue=\"BLACK OR AFRICAN AMERICAN\">\n    <Decode><TranslatedText>Black or African American</TranslatedText></Decode>\n  </CodeListItem>\n  <CodeListItem CodedValue=\"ASIAN\">\n    <Decode><TranslatedText>Asian</TranslatedText></Decode>\n  </CodeListItem>\n  <CodeListItem CodedValue=\"AMERICAN INDIAN OR ALASKA NATIVE\">\n    <Decode><TranslatedText>American Indian or Alaska Native</TranslatedText></Decode>\n  </CodeListItem>\n  <CodeListItem CodedValue=\"NATIVE HAWAIIAN OR OTHER PACIFIC ISLANDER\">\n    <Decode><TranslatedText>Native Hawaiian or Other Pacific Islander</TranslatedText></Decode>\n  </CodeListItem>\n  <CodeListItem CodedValue=\"MULTIPLE\">\n    <Decode><TranslatedText>Multiple</TranslatedText></Decode>\n  </CodeListItem>\n  <CodeListItem CodedValue=\"OTHER\">\n    <Decode><TranslatedText>Other</TranslatedText></Decode>\n  </CodeListItem>\n</CodeList>\n\n<!-- ARMCD / ACTARMCD -->\n<CodeList OID=\"CL.ARMCD\" Name=\"ARMCD\" DataType=\"text\" def:Extensible=\"Yes\">\n  <CodeListItem CodedValue=\"PBO\">\n    <Decode><TranslatedText>Placebo</TranslatedText></Decode>\n  </CodeListItem>\n  <CodeListItem CodedValue=\"XAN_LOW\">\n    <Decode><TranslatedText>Xanomeline Low Dose</TranslatedText></Decode>\n  </CodeListItem>\n  <CodeListItem CodedValue=\"XAN_HIGH\">\n    <Decode><TranslatedText>Xanomeline High Dose</TranslatedText></Decode>\n  </CodeListItem>\n  <CodeListItem CodedValue=\"Scrnfail\">\n    <Decode><TranslatedText>Screen Failure</TranslatedText></Decode>\n  </CodeListItem>\n</CodeList>\n\n<!-- ARM / ACTARM -->\n<CodeList OID=\"CL.ARM\" Name=\"ARM\" DataType=\"text\" def:Extensible=\"Yes\">\n  <CodeListItem CodedValue=\"Placebo\">\n    <Decode><TranslatedText>Placebo</TranslatedText></Decode>\n  </CodeListItem>\n  <CodeListItem CodedValue=\"Xanomeline Low Dose\">\n    <Decode><TranslatedText>Xanomeline Low Dose</TranslatedText></Decode>\n  </CodeListItem>\n  <CodeListItem CodedValue=\"Xanomeline High Dose\">\n    <Decode><TranslatedText>Xanomeline High Dose</TranslatedText></Decode>\n  </CodeListItem>\n  <CodeListItem CodedValue=\"Screen Failure\">\n    <Decode><TranslatedText>Screen Failure</TranslatedText></Decode>\n  </CodeListItem>\n</CodeList>\n\n<!-- AESEV (Severity) -->\n<CodeList OID=\"CL.AESEV\" Name=\"AESEV\" DataType=\"text\" def:Extensible=\"No\">\n  <CodeListItem CodedValue=\"MILD\" def:Rank=\"1\">\n    <Decode><TranslatedText>Mild</TranslatedText></Decode>\n  </CodeListItem>\n  <CodeListItem CodedValue=\"MODERATE\" def:Rank=\"2\">\n    <Decode><TranslatedText>Moderate</TranslatedText></Decode>\n  </CodeListItem>\n  <CodeListItem CodedValue=\"SEVERE\" def:Rank=\"3\">\n    <Decode><TranslatedText>Severe</TranslatedText></Decode>\n  </CodeListItem>\n</CodeList>\n\n<!-- YESNO (Serious) -->\n<CodeList OID=\"CL.YESNO\" Name=\"YESNO\" DataType=\"text\" def:Extensible=\"No\">\n  <CodeListItem CodedValue=\"Y\">\n    <Decode><TranslatedText>Yes</TranslatedText></Decode>\n  </CodeListItem>\n  <CodeListItem CodedValue=\"N\">\n    <Decode><TranslatedText>No</TranslatedText></Decode>\n  </CodeListItem>\n</CodeList>\n\n<!-- AEREL (Causality) -->\n<CodeList OID=\"CL.AEREL\" Name=\"AEREL\" DataType=\"text\" def:Extensible=\"Yes\">\n  <CodeListItem CodedValue=\"RELATED\">\n    <Decode><TranslatedText>Related</TranslatedText></Decode>\n  </CodeListItem>\n  <CodeListItem CodedValue=\"NOT RELATED\">\n    <Decode><TranslatedText>Not Related</TranslatedText></Decode>\n  </CodeListItem>\n</CodeList>\n\n<!-- AEOUT (Outcome) -->\n<CodeList OID=\"CL.AEOUT\" Name=\"AEOUT\" DataType=\"text\" def:Extensible=\"Yes\">\n  <CodeListItem CodedValue=\"RECOVERED/RESOLVED\">\n    <Decode><TranslatedText>Recovered/Resolved</TranslatedText></Decode>\n  </CodeListItem>\n  <CodeListItem CodedValue=\"RECOVERING/RESOLVING\">\n    <Decode><TranslatedText>Recovering/Resolving</TranslatedText></Decode>\n  </CodeListItem>\n  <CodeListItem CodedValue=\"NOT RECOVERED/NOT RESOLVED\">\n    <Decode><TranslatedText>Not Recovered/Not Resolved</TranslatedText></Decode>\n  </CodeListItem>\n  <CodeListItem CodedValue=\"RECOVERED/RESOLVED WITH SEQUELAE\">\n    <Decode><TranslatedText>Recovered/Resolved with Sequelae</TranslatedText></Decode>\n  </CodeListItem>\n  <CodeListItem CodedValue=\"FATAL\">\n    <Decode><TranslatedText>Fatal</TranslatedText></Decode>\n  </CodeListItem>\n</CodeList>\n\n<!-- MEDDRA_PT (MedDRA Preferred Term \u2014 external dictionary) -->\n<CodeList OID=\"CL.MEDDRA_PT\" Name=\"MedDRA Preferred Term\" DataType=\"text\"\n          def:Extensible=\"Yes\">\n  <Alias Name=\"MedDRA PT\"/>\n  <!-- Populated from MedDRA dictionary version documented in study config -->\n</CodeList>\n\n<!-- MEDDRA_SOC (MedDRA System Organ Class \u2014 external dictionary) -->\n<CodeList OID=\"CL.MEDDRA_SOC\" Name=\"MedDRA System Organ Class\" DataType=\"text\"\n          def:Extensible=\"Yes\">\n  <Alias Name=\"MedDRA SOC\"/>\n  <!-- Populated from MedDRA dictionary version documented in study config -->\n</CodeList>\n```\n\n---\n\n## 5. Computational Methods\n\n```xml\n<!-- USUBJID Derivation -->\n<def:ComputationalMethod OID=\"CM.USUBJID\" Name=\"USUBJID Derivation\">\n  <Description>\n    <TranslatedText>USUBJID = STUDYID || '-' || SITEID || '-' || SUBJID</TranslatedText>\n  </Description>\n</def:ComputationalMethod>\n\n<!-- AESEQ Derivation -->\n<def:ComputationalMethod OID=\"CM.AESEQ\" Name=\"AESEQ Derivation\">\n  <Description>\n    <TranslatedText>AESEQ = sequential number within USUBJID for AE domain</TranslatedText>\n  </Description>\n</def:ComputationalMethod>\n\n<!-- Date Derivation (AESTDT from AESTDTC) -->\n<def:ComputationalMethod OID=\"CM.AESTDT\" Name=\"AESTDT Derivation\">\n  <Description>\n    <TranslatedText>AESTDT = ISO 8601 date portion of AESTDTC</TranslatedText>\n  </Description>\n</def:ComputationalMethod>\n```\n\n---\n\n## 6. Summary\n\n| Metric | Count |\n|--------|-------|\n| **Datasets documented** | 2 (DM, AE) |\n| **DM variables** | 15 |\n| **AE variables** | 16 |\n| **Total variables** | 31 |\n| **Controlled terminology lists** | 10 |\n| **Computational methods** | 3 |\n| **Define-XML version** | 2.1.0 |\n| **SDTM IG version** | 3.4 |\n\n### Key Compliance Notes\n\n- \u2705 All mandatory identifier variables (`STUDYID`, `DOMAIN`, `USUBJID`) documented for both domains\n- \u2705 `USUBJID` derivation method documented (concatenation rule)\n- \u2705 MedDRA dictionary references marked as external code lists with `Alias`\n- \u2705 `def:Extensible` flag set appropriately \u2014 `No` for fixed CDISC CT (SEX, YESNO, AESEV), `Yes` for extensible/sponsor-defined lists (ARMCD, RACE, AEOUT, MedDRA)\n- \u2705 Origin attribute specified per variable (CRF, Derived, Assigned)\n- \u2705 Role assigned per SDTM IG (Identifier, Topic, Qualifier, Timing, Record Qualifier, Synonym Qualifier)\n- \u26a0\ufe0f ARMCD/ARM codelist values shown as examples \u2014 replace with actual study treatment arms from `study-config.yaml`",
      "skills_loaded": [
        "data-quality",
        "define-xml-builder",
        "define-xml-validator",
        "workflow",
        "workflow-status"
      ],
      "skills_count": 5,
      "skills_tokens": 7513,
      "principles_used": [
        "p_569c5920",
        "p_548144ea"
      ],
      "principles_count": 2,
      "context_strategy": "APS: 5 loaded | 2 principles | 0 truncated | 0 dropped | 7731/8000 tokens",
      "tokens_in": 27760,
      "tokens_out": 4803,
      "dim_completeness": 4.0,
      "dim_terminology": 4.0,
      "dim_structure": 4.0,
      "dim_reasoning": "Completeness: All requested items (datasets, variables, CT refs) are present with detailed implementation like derivation logic and code snippets, but missing edge cases and validation checks. Terminology: Correct use of SDTM IG v3.4, Define-XML v2.1, ISO 8601, and CT references; however, cross-domain traceability and explicit IG version references in variable definitions are lacking. Structure: Well-organized with tables and XML snippets, but not fully machine-readable as a single XML document;",
      "quality_score": 4.0,
      "auto_metrics": {
        "response_length": 15689,
        "word_count": 1575,
        "cdisc_term_count": 161,
        "cdisc_terms_found": [
          "USUBJID",
          "STUDYID",
          "SDTM",
          "CDISC",
          "CT",
          "RFSTDTC",
          "RFENDTC",
          "AESTDTC",
          "AEENDTC",
          "AEDECOD",
          "AEBODSYS",
          "AETERM",
          "AESEV",
          "AESER",
          "ARM",
          "ARMCD",
          "AGE",
          "AGEU",
          "SEX",
          "RACE",
          "MedDRA",
          "ISO 8601",
          "IG v3",
          "Define.xml"
        ],
        "code_block_count": 5,
        "codelist_ref_count": 0,
        "table_row_count": 67
      },
      "cost_usd": 0.0008104600000000002,
      "agent_model": "glm-5",
      "agent_duration_ms": 95896,
      "agent_num_turns": 1,
      "run_id": 1,
      "is_error_response": false,
